angular_vel.x angular_vel.y angular_vel.z linear_acc.x linear_acc.y linear_acc.z orientation.w orientation.x orientation.y orientation.z
0.2002697139739587 -2.6631610900792384 -0.9523464058123355 -7.287792968750001 -0.9187500000000001 6.593945312500001 0.9590061036296729 0.023321606046099612 0.23694640790575042 0.15368733088002182
-0.12037488127158155 -2.3052322395725886 -0.5134574581672772 -7.321289062500001 0.12919921875 6.952832031250001 0.9619649212593163 0.023537855539978225 0.22663753979329299 0.1506814028988977
-0.12037488127158155 -2.3052322395725886 -0.5134574581672772 -7.321289062500001 0.12919921875 6.952832031250001 0.9648003688352615 0.023803240505764295 0.21633187902430281 0.14762849370830317
0.7137271721412358 -2.975283569836525 -0.23329291149094125 -5.9144531250000005 0.2009765625 6.9958984375 0.9676832007177467 0.02646776911467398 0.2047982731887865 0.14472853051710516
0.7137271721412358 -2.975283569836525 -0.23329291149094125 -5.9144531250000005 0.2009765625 6.9958984375 0.9705831143100465 0.03154890423976248 0.1919030082251342 0.14193773385405736
1.178182466251055 -4.71912145162041 -0.782969360483296 -4.97177734375 -1.0623046875000002 6.74228515625 0.9741775193772706 0.0380072815707898 0.17507063579251972 0.13741862963495616
1.178182466251055 -4.71912145162041 -0.782969360483296 -4.97177734375 -1.0623046875000002 6.74228515625 0.978234412182372 0.045926541912333904 0.15415119244937234 0.13109384972843005
-2.335059643781476 -5.338040088954825 -1.1355718888097872 -3.8759765625000004 -0.61728515625 6.9911132812500005 0.9824692110982866 0.0452157054376955 0.1306891647114262 0.125020524125888
-2.335059643781476 -5.338040088954825 -1.1355718888097872 -3.8759765625000004 -0.61728515625 6.9911132812500005 0.9866936655905827 0.035958095184947664 0.1046316175711042 0.11914214316749562
-2.7526433027059007 -4.3121904370563025 -3.208576481327466 -1.8518554687500002 -0.8708984375000001 5.852246093750001 0.9904835416090854 0.024899762771753958 0.08114729886561829 0.10833961187971693
-2.7526433027059007 -4.3121904370563025 -3.208576481327466 -1.8518554687500002 -0.8708984375000001 5.852246093750001 0.9938164561706413 0.012018714897653446 0.060214838125647756 0.0925125678280444
-1.04928546949122 -3.2181638612517514 -5.029113402505633 -1.7417968750000001 -0.36367187500000003 6.483886718750001 0.9964949860459383 0.002926102147634258 0.042398349981744375 0.07205248524757736
-1.04928546949122 -3.2181638612517514 -5.029113402505633 -1.7417968750000001 -0.36367187500000003 6.483886718750001 0.9985160066016112 -0.0023035323512657748 0.02762636867180668 0.04687496189957951
-0.33342776847792066 -3.1904669859149277 -4.308994643748208 -1.2393554687500001 0.06699218750000001 7.0868164062500005 0.9996201661715388 -0.00577190431628933 0.013001897140537228 0.023604219421449458
-0.33342776847792066 -3.1904669859149277 -4.308994643748208 -1.2393554687500001 0.06699218750000001 7.0868164062500005 0.999968631956878 -0.007474855443304962 -0.001502129734876672 0.002145983376249007
1.5265239368334194 -3.2394691499723853 -4.932174338826749 -0.6029296875000001 3.9956054687500004 6.914550781250001 0.9996448925242045 -0.004457056704747657 -0.016209263034026193 -0.020675668978203308
1.5265239368334194 -3.2394691499723853 -4.932174338826749 -0.6029296875000001 3.9956054687500004 6.914550781250001 0.9985029844322025 0.0032982510779734266 -0.03109416650697963 -0.04487832916951798
1.86634329192753 -2.5395904154995614 -3.023220469457951 2.85673828125 3.33525390625 7.6610351562500005 0.9968878499366891 0.01185447330753331 -0.04432188013605507 -0.0641066069326044
1.86634329192753 -2.5395904154995614 -3.023220469457951 2.85673828125 3.33525390625 7.6610351562500005 0.9951192404450314 0.021242024827872193 -0.0560491724778885 -0.07838982039691085
1.1547466486583577 -1.7491642039640438 -2.5214809200870225 4.2396484375000005 4.3114257812500005 7.550976562500001 0.9932233755257169 0.028973554394432742 -0.06577191779345418 -0.09133408063162696
1.1547466486583577 -1.7491642039640438 -2.5214809200870225 4.2396484375000005 4.3114257812500005 7.550976562500001 0.991333994355196 0.0351145428001606 -0.07358678947382269 -0.1029993443408416
0.44315000538918525 -1.069525493775822 -2.837864457588436 3.6558593750000004 6.0962890625 6.9958984375 0.9893252765711062 0.039795901764156885 -0.07965954277458562 -0.1153522456878307
0.44315000538918525 -1.069525493775822 -2.837864457588436 3.6558593750000004 6.0962890625 6.9958984375 0.9872078699226702 0.043127962985950785 -0.08396171942870331 -0.1284952529940405
0.42930156772077316 -0.7179882298853626 -2.359560725810205 4.134375 4.966992187500001 8.953027343750001 0.9851305635464784 0.046577006206217075 -0.08754948558207022 -0.14029769361532246
0.42930156772077316 -0.7179882298853626 -2.359560725810205 4.134375 4.966992187500001 8.953027343750001 0.983146664281635 0.04999213475536753 -0.09038591044825132 -0.15084366134158847
0.18002968968935648 -0.10439591473110613 -1.8674085563635618 4.3162109375 3.1773437500000004 10.919726562500001 0.9813981893675356 0.052953736386776924 -0.09183683575845984 -0.16006089874381085
0.18002968968935648 -0.10439591473110613 -1.8674085563635618 4.3162109375 3.1773437500000004 10.919726562500001 0.9799404317041255 0.05537727993116287 -0.09180398010266436 -0.1679944535282864
-1.30707946301089 1.4338459308986617 -1.975000264402763 2.9093750000000003 1.56953125 12.417480468750002 0.9789194344375258 0.05478128087908981 -0.08747141443046583 -0.17625125191979343
-1.30707946301089 1.4338459308986617 -1.975000264402763 2.9093750000000003 1.56953125 12.417480468750002 0.9782689394228183 0.051108982000679495 -0.07873508673770209 -0.18487439042716336
-2.3957797166352828 2.8815402994657355 -2.339320701525603 3.25869140625 1.41162109375 11.991601562500001 0.977669314155313 0.04552024178733576 -0.06599911347832546 -0.19425430951919107
-2.3957797166352828 2.8815402994657355 -2.339320701525603 3.25869140625 1.41162109375 11.991601562500001 0.9769069452758586 0.03794297613230764 -0.04926061498455731 -0.2044175693167219
-3.804059301069184 2.659965296771143 -3.379018791092537 5.263671875 2.1006835937500004 13.25009765625 0.9752444857596022 0.026886074367538863 -0.03236871751323644 -0.21708891755946583
-3.804059301069184 2.659965296771143 -3.379018791092537 5.263671875 2.1006835937500004 13.25009765625 0.9724719546937171 0.012390658373594859 -0.015379163508009294 -0.23218150281416364
-6.848585059247769 1.8727348785437203 -4.28555882615551 3.11513671875 3.0768554687500003 9.5607421875 0.9683881571806973 -0.009826022672740355 0.0014400515717554977 -0.24925038126766916
-6.848585059247769 1.8727348785437203 -4.28555882615551 3.11513671875 3.0768554687500003 9.5607421875 0.9623964050260274 -0.03976779254237212 0.017952807245183534 -0.26812194796641114
-7.620901775370747 6.520483612950007 -5.65548889089227 0.97138671875 6.0101562500000005 9.15400390625 0.9534089498037949 -0.06812273722000806 0.045821952000654254 -0.2902947051231357
-7.620901775370747 6.520483612950007 -5.65548889089227 0.97138671875 6.0101562500000005 9.15400390625 0.9403876880791637 -0.09482306375190097 0.08483233860252418 -0.31540934833491385
-5.243231554148005 8.770322101848947 -2.9007150593143063 -0.7943359375000001 1.01923828125 12.575390625 0.9269489610381816 -0.11301541972804817 0.12746622573897512 -0.3342835620095448
-5.243231554148005 8.770322101848947 -2.9007150593143063 -0.7943359375000001 1.01923828125 12.575390625 0.9134515101223404 -0.1229055651318112 0.17366195741534418 -0.34690356766905317
-1.98565290876308 3.848800407382515 -3.7049897085182364 -1.1005859375 -4.66552734375 10.4029296875 0.9006076338351857 -0.13002651783603433 0.2050393852747182 -0.36049666437207056
-1.98565290876308 3.848800407382515 -3.7049897085182364 -1.1005859375 -4.66552734375 10.4029296875 0.8897503950484618 -0.13454126654129472 0.22196329628829042 -0.37546661264273173
-2.2221416135621164 1.7427726173478535 -3.5100463167244356 0.63642578125 -5.95751953125 6.498242187500001 0.8796965746218078 -0.14160538147325613 0.23434275665692467 -0.3887998520304572
-2.2221416135621164 1.7427726173478535 -3.5100463167244356 0.63642578125 -5.95751953125 6.498242187500001 0.8706239557033261 -0.15111175847213437 0.24224206674437637 -0.4006219481086441
-2.6738137344395554 1.6959009821624587 -2.178465771684817 -1.24892578125 -5.278027343750001 9.240136718750001 0.8624607586129859 -0.16096322131710616 0.25084463921908023 -0.40905897889055387
-2.6738137344395554 1.6959009821624587 -2.178465771684817 -1.24892578125 -5.278027343750001 9.240136718750001 0.8552588734696409 -0.17103987418623423 0.26024445310485145 -0.4141864862811855
-3.496197879056024 2.142246780859739 -2.2711437776195744 -5.033984375 -4.10087890625 10.11103515625 0.8470069731516373 -0.18254558222795508 0.2713469810587169 -0.4190788872180018
-3.496197879056024 2.142246780859739 -2.2711437776195744 -5.033984375 -4.10087890625 10.11103515625 0.8375959986217696 -0.1953257019476181 0.2841578493971402 -0.4237158598370647
-1.939846538013717 3.924434182340765 -3.178749077118579 -3.92861328125 -5.014843750000001 7.54619140625 0.8262943519264606 -0.20355826747926564 0.29846533885421345 -0.4321112324597795
-1.939846538013717 3.924434182340765 -3.178749077118579 -3.92861328125 -5.014843750000001 7.54619140625 0.8130213299545164 -0.2072887698703324 0.314157814048612 -0.44422128584392667
-1.1387676821178823 4.948153305367224 -3.3097766027504774 -2.9572265625000003 -6.842773437500001 6.3259765625 0.7986891016535053 -0.20832342861464054 0.3307886219237327 -0.45746689016360004
-1.1387676821178823 4.948153305367224 -3.3097766027504774 -2.9572265625000003 -6.842773437500001 6.3259765625 0.7832115000888799 -0.2067185968542138 0.34826397839992346 -0.4717619836233196
-1.933454951397527 3.8221687964817224 -3.508981052288404 -3.9046875 -8.809472656250001 7.809375 0.7674770339881649 -0.20817828323864476 0.3641116008659554 -0.4848335248344228
-1.933454951397527 3.8221687964817224 -3.508981052288404 -3.9046875 -8.809472656250001 7.809375 0.7515904761296772 -0.21265678734585414 0.3784077325839388 -0.49668544865698205
-2.7036411386484427 3.5739621828863375 -3.8008635077610884 -4.966992187500001 -9.63251953125 6.258984375000001 0.7345982355375695 -0.21912177158301804 0.3927766505490106 -0.5080133702442382
-2.7036411386484427 3.5739621828863375 -3.8008635077610884 -4.966992187500001 -9.63251953125 6.258984375000001 0.716478758528044 -0.22749926077886032 0.4072754430983856 -0.5186800443165311
-2.6258768348181287 4.564658108395814 -3.433347277330154 -3.426171875 -9.268847656250001 2.89501953125 0.6972174612293 -0.2339365710618465 0.4233295227645263 -0.5291064237303811
-2.6258768348181287 4.564658108395814 -3.433347277330154 -3.426171875 -9.268847656250001 2.89501953125 0.6767729719882646 -0.2384427069000225 0.4408725147787099 -0.5392168818064378
-1.618136678332145 2.9625003966041445 -1.8993664894445128 -2.78017578125 -7.838085937500001 3.0290039062500003 0.6601458163273255 -0.24153579047112955 0.4549795713487207 -0.546682314294463
-1.618136678332145 2.9625003966041445 -1.8993664894445128 -2.78017578125 -7.838085937500001 3.0290039062500003 0.6476662879649253 -0.2433434708098102 0.4658170731429418 -0.5516582175736284
-0.058589543981743236 0.1384843766841204 -1.2708604721858126 -1.8901367187500002 -8.689843750000001 3.7467773437500003 0.6399924421853032 -0.24570332426133662 0.47027983111158567 -0.5557665254783508
-0.058589543981743236 0.1384843766841204 -1.2708604721858126 -1.8901367187500002 -8.689843750000001 3.7467773437500003 0.6372811872533622 -0.24873022161799785 0.46845232309765655 -0.5590692141508201
0.8831042174702755 0.2567287290836386 -1.0045443631778888 -5.09619140625 -8.618066406250001 4.2109375 0.6351423748423923 -0.24970950053719201 0.46575192560623385 -0.5633067306673314
0.8831042174702755 0.2567287290836386 -1.0045443631778888 -5.09619140625 -8.618066406250001 4.2109375 0.6336138106072848 -0.24859056044762012 0.46225482738883245 -0.5683808114457898
0.2822950755483993 1.6959009821624587 -1.0322412385147126 -5.014843750000001 -6.555664062500001 4.880859375 0.6298149435784544 -0.24631090088271115 0.4619811968242717 -0.5737921668447812
0.2822950755483993 1.6959009821624587 -1.0322412385147126 -5.014843750000001 -6.555664062500001 4.880859375 0.6238689342077377 -0.24282538630355371 0.4648570323426689 -0.5794232685857535
-1.0258496518985225 1.3262542228594605 -1.0056096276139204 -4.6463867187500005 -6.8619140625 4.6703125000000005 0.6175741179057745 -0.2418325359062474 0.4690329044304943 -0.5832043964439506
-1.0258496518985225 1.3262542228594605 -1.0056096276139204 -4.6463867187500005 -6.8619140625 4.6703125000000005 0.6109143993909499 -0.2432680437134852 0.4745646390977418 -0.5851432806096629
-1.2069446060239106 0.5273058958356891 -1.0109359497940789 -2.94765625 -7.632324218750001 2.6796875 0.6049931838718641 -0.24612248339736642 0.4791374902651521 -0.5863738023286077
-1.2069446060239106 0.5273058958356891 -1.0109359497940789 -2.94765625 -7.632324218750001 2.6796875 0.599776383831903 -0.250370615025352 0.48273721051765184 -0.5869817970865784
0.024501082028728992 -0.5731122665850521 -0.23009711818284617 -1.6987304687500002 -8.36923828125 1.67958984375 0.597629653383996 -0.253350058326415 0.4834554498752357 -0.5873017736462749
0.024501082028728992 -0.5731122665850521 -0.23009711818284617 -1.6987304687500002 -8.36923828125 1.67958984375 0.59854646841064 -0.25512970087404596 0.4813263537909526 -0.5873464923121421
3.624029611379827 -1.2101403993320057 0.6135923151542565 -1.53125 -8.86689453125 3.3687500000000004 0.6035303602828259 -0.25140729998482414 0.47353441917165784 -0.5901784709653374
3.624029611379827 -1.2101403993320057 0.6135923151542565 -1.53125 -8.86689453125 3.3687500000000004 0.6123829154847279 -0.24217329470388677 0.4600646137667521 -0.5955500074001663
2.6589000323351115 0.05539375067364816 -0.27270769562411395 -1.4211914062500002 -11.005859375 5.06748046875 0.6175254337580122 -0.2334427860141743 0.4493755900311161 -0.6018541213650579
2.6589000323351115 0.05539375067364816 -0.27270769562411395 -1.4211914062500002 -11.005859375 5.06748046875 0.6190247122291361 -0.22534095763874795 0.44157056547433615 -0.6091348735434232
0.7861651537913912 1.0876349891883608 -0.5635248866607668 -2.583984375 -6.196777343750001 3.043359375 0.617664387068999 -0.21883146042802593 0.4380451804164938 -0.6154022398297689
0.7861651537913912 1.0876349891883608 -0.5635248866607668 -2.583984375 -6.196777343750001 3.043359375 0.6136763868465155 -0.2139211042400194 0.43881406625493385 -0.6205491669840086
1.4008227333816792 -0.4005394279479174 0.346210941710301 -4.0003906250000005 -6.0771484375 3.97646484375 0.6130421235359496 -0.20937357395695533 0.43679432405454777 -0.6241416343849813
1.4008227333816792 -0.4005394279479174 0.346210941710301 -4.0003906250000005 -6.0771484375 3.97646484375 0.6157505402389577 -0.20523126616028048 0.4320235920962352 -0.6261685200151359
2.460760847233216 -3.4834147058236433 0.7243798165015527 -2.75625 -5.187109375 4.48369140625 0.6229074792682536 -0.20383891338788188 0.4209899134159075 -0.627059377142695
2.460760847233216 -3.4834147058236433 0.7243798165015527 -2.75625 -5.187109375 4.48369140625 0.6343002182005065 -0.20521985653329564 0.40363200437111924 -0.6266013475269553
4.4464137559962955 -4.54335281967518 1.7246631219353146 0.85654296875 -5.6751953125000005 6.067578125000001 0.6489959996718346 -0.20399893724694507 0.3818382159574464 -0.6256102643391551
4.4464137559962955 -4.54335281967518 1.7246631219353146 0.85654296875 -5.6751953125000005 6.067578125000001 0.6666074298072413 -0.2001991168615369 0.3553647241013451 -0.6239156681780154
0.9800432811491595 -0.7776430383031376 1.4732607150318346 0.440234375 -7.64189453125 14.106640625 0.6782955113859361 -0.19660070834009308 0.3401703299779592 -0.6209247195244778
0.9800432811491595 -0.7776430383031376 1.4732607150318346 0.440234375 -7.64189453125 14.106640625 0.6849172755927484 -0.19335261604016174 0.33613521516018285 -0.616859958656947
1.0546117916713782 1.184574052867245 1.968608677786573 0.14833984375 -9.66123046875 7.909863281250001 0.6908752844197807 -0.18668804857128096 0.3353449338881139 -0.612684820453478
1.0546117916713782 1.184574052867245 1.968608677786573 0.14833984375 -9.66123046875 7.909863281250001 0.6957870250586955 -0.17655683038536957 0.33799694894201376 -0.6086593167857796
-0.5028048138069602 0.8234494090525004 0.9981527765616985 -3.01943359375 -3.7754882812500004 6.68486328125 0.6987509305723805 -0.17056093050492396 0.3418498546562079 -0.6048097079917419
-0.5028048138069602 0.8234494090525004 0.9981527765616985 -3.01943359375 -3.7754882812500004 6.68486328125 0.7000625995942333 -0.1686309876378177 0.34690087574624673 -0.6009456956033095
2.4948493091862303 -1.702292568778649 1.1377024176818507 -1.8614257812500001 -6.2876953125 5.708691406250001 0.705096964873602 -0.16511720841634522 0.34301617773381254 -0.59825954185764
2.4948493091862303 -1.702292568778649 1.1377024176818507 -1.8614257812500001 -6.2876953125 5.708691406250001 0.7135267579416111 -0.15996598874233148 0.3303239149131313 -0.5968052943661644
2.883670828337799 -0.9171926794232896 1.003479098741857 -1.68916015625 -6.881054687500001 5.62255859375 0.7210138581532308 -0.15306190451664764 0.31840975393824705 -0.5960925249772172
2.883670828337799 -0.9171926794232896 1.003479098741857 -1.68916015625 -6.881054687500001 5.62255859375 0.7275018106462598 -0.14436150801519332 0.3073224682737488 -0.596199438949856
2.5321335644473395 0.39840889907585403 0.021305288720633905 -0.8852539062500001 -4.9861328125 5.5077148437500005 0.7311335638186083 -0.13505790372653653 0.29883947427643076 -0.5982458049272734
2.5321335644473395 0.39840889907585403 0.021305288720633905 -0.8852539062500001 -4.9861328125 5.5077148437500005 0.7320716435802741 -0.1252255275387396 0.2929150293297936 -0.6021548484493392
2.5321335644473395 0.39840889907585403 0.021305288720633905 -0.8852539062500001 -4.9861328125 5.5077148437500005 0.7328478165170691 -0.11537668555223404 0.2870038602548896 -0.6060124441428054
1.8365158877186427 2.1241372854472003 -1.1323760955016922 -0.8661132812500001 -5.1249023437500005 6.11064453125 0.7270778428419855 -0.104554102251762 0.28874437558668326 -0.6140463628404859
1.8365158877186427 2.1241372854472003 -1.1323760955016922 -0.8661132812500001 -5.1249023437500005 6.11064453125 0.7211648437545317 -0.09371468524217104 0.29039804096051 -0.6219387459459016
0.9768474878410645 1.5116102347289755 -1.5574166054783385 -2.6940429687500003 -4.775585937500001 9.412402343750001 0.7144684592269274 -0.0884884699325637 0.2921967794078343 -0.629544004468777
0.9768474878410645 1.5116102347289755 -1.5574166054783385 -2.6940429687500003 -4.775585937500001 9.412402343750001 0.7078696754504158 -0.0833174803507179 0.29382932477496015 -0.6369011288638307
1.1558119130943894 -1.3720605936088235 -1.565938720966592 -1.1005859375 -5.53642578125 7.632324218750001 0.7055264863921381 -0.08664750481030553 0.28464937608805635 -0.6431946203148722
1.1558119130943894 -1.3720605936088235 -1.565938720966592 -1.1005859375 -5.53642578125 7.632324218750001 0.7030728846180762 -0.08993497511894537 0.2754397517689375 -0.64940985695525
1.9100191338048296 -2.702575874212411 -0.8223841446164687 -1.2872070312500001 -7.034179687500001 8.97216796875 0.7050325241759978 -0.09374151032436193 0.2594481435033686 -0.6533210006794393
1.9100191338048296 -2.702575874212411 -0.8223841446164687 -1.2872070312500001 -7.034179687500001 8.97216796875 0.7066970265359886 -0.09756424867894896 0.24348334739472435 -0.6570969407982088
2.491653515878135 -1.1057444846008997 -0.19387812735776855 -0.22490234375 -5.799609375 6.9958984375 0.7084954640348923 -0.09318575820699584 0.231591352697465 -0.6600879011655403
2.491653515878135 -1.1057444846008997 -0.19387812735776855 -0.22490234375 -5.799609375 6.9958984375 0.7100611182995169 -0.08886701429957286 0.21969816088279295 -0.6630600124826087
2.5363946221914664 0.8767126308540852 -0.6434197193631439 -0.7895507812500001 -4.057812500000001 7.92900390625 0.7078532485614153 -0.07830146260350425 0.21453243304336725 -0.6684223923745348
2.5363946221914664 0.8767126308540852 -0.6434197193631439 -0.7895507812500001 -4.057812500000001 7.92900390625 0.7055150780909157 -0.06778603383784332 0.20924842992385193 -0.6736977235951646
2.2327942579224334 0.842624168901071 -0.7307714031177429 0.13876953125000002 -4.2635742187500005 7.7615234375 0.7026846379553826 -0.05849159852507235 0.20481495824816467 -0.6788695495905656
2.2327942579224334 0.842624168901071 -0.7307714031177429 0.13876953125000002 -4.2635742187500005 7.7615234375 0.6996864048709321 -0.04929557889205967 0.2003471308719741 -0.6840101665120591
1.772600021556741 0.16937704532903955 -0.6785734457521899 0.3349609375 -4.2875000000000005 7.1825195312500005 0.69722875070111 -0.04388819602431902 0.19508388615084826 -0.6883953608281969
1.772600021556741 0.16937704532903955 -0.6785734457521899 0.3349609375 -4.2875000000000005 7.1825195312500005 0.6945493441193974 -0.03850898140104243 0.1898758368125304 -0.6928675440006627
1.9132149271129246 -0.44634579869728036 -0.4250405099766464 -1.0479492187500001 -2.49306640625 8.2017578125 0.693391621078975 -0.03453402017930719 0.1819979107125236 -0.6963420292959508
1.9132149271129246 -0.44634579869728036 -0.4250405099766464 -1.0479492187500001 -2.49306640625 8.2017578125 0.6922753423797408 -0.030537834263060212 0.17407694670693175 -0.6996567069904543
1.6767262223138883 -0.5709817377129887 -0.7840346249193277 -2.56484375 -0.9187500000000001 9.311914062500001 0.6901793182660444 -0.028084287070966385 0.16642272429091146 -0.7036812192300751
1.6767262223138883 -0.5709817377129887 -0.7840346249193277 -2.56484375 -0.9187500000000001 9.311914062500001 0.6883042742849403 -0.025596121954663792 0.15872215494765654 -0.7073820340316368
1.1313108310656603 0.09054747706269409 -1.3411679249639044 -1.44990234375 -1.33984375 8.383593750000001 0.6839232172287585 -0.023068329313911798 0.15509123727514917 -0.7125051531312546
1.1313108310656603 0.09054747706269409 -1.3411679249639044 -1.44990234375 -1.33984375 8.383593750000001 0.6796445479634965 -0.0204805073912646 0.1514214578019044 -0.7174506110929425
1.3614079492485065 0.586960704253464 -1.0823086670082023 -0.56943359375 -2.82802734375 8.043847656250001 0.6758461638949322 -0.015101036324872294 0.14861221528554105 -0.721746722138967
1.3614079492485065 0.586960704253464 -1.0823086670082023 -0.56943359375 -2.82802734375 8.043847656250001 0.6719554801452056 -0.0097774102028403 0.1457817305625345 -0.7260357580634332
1.8194716567421356 0.3227751241176037 -0.3547330571985545 -0.8182617187500001 -3.03857421875 7.9481445312500005 0.6707742755258659 -0.003316826315637733 0.1404617207622154 -0.72823167670492
1.8194716567421356 0.3227751241176037 -0.3547330571985545 -0.8182617187500001 -3.03857421875 7.9481445312500005 0.6694260088506669 0.003116695264448785 0.13521350152904496 -0.7304631502609494
1.7587515838883288 -1.0578075849794735 1.8397116810267375 -2.32080078125 -1.5551757812500002 9.11572265625 0.6769925627448826 0.0058286208393995426 0.12546026631723234 -0.725194331708981
1.7587515838883288 -1.0578075849794735 1.8397116810267375 -2.32080078125 -1.5551757812500002 9.11572265625 0.6844642644450651 0.008546707876256547 0.11576209759293604 -0.7197463172834144
1.2942962897785097 -3.3097766027504774 0.68496503236838 -1.2872070312500001 0.34931640625000004 8.8525390625 0.6890945621706541 0.0010510552430962536 0.10007002372555798 -0.7177280613305269
1.2942962897785097 -3.3097766027504774 0.68496503236838 -1.2872070312500001 0.34931640625000004 8.8525390625 0.6936760135100061 -0.006407737474750534 0.08433808326893297 -0.715303863327917
0.47510793847013605 -1.9238675714732416 -0.5518069778644181 -0.3923828125 -0.14833984375 7.168164062500001 0.6931933535891416 -0.012214338505316127 0.07630345250949183 -0.7165972143469781
0.47510793847013605 -1.9238675714732416 -0.5518069778644181 -0.3923828125 -0.14833984375 7.168164062500001 0.692703548277973 -0.017897835391320168 0.0681936935162592 -0.7177681254110003
-0.111852765783328 0.18535601186951495 -0.4665858229818825 0.6412109375 -2.8806640625 8.455371093750001 0.6917338617026411 -0.01808323316843959 0.0695395832317353 -0.7185690694819001
-0.111852765783328 0.18535601186951495 -0.4665858229818825 0.6412109375 -2.8806640625 8.455371093750001 0.6906930432608696 -0.01829442380453172 0.07078721026213908 -0.7194425654018549
-0.36538570155887146 -0.009587379924285258 -0.21198762277030733 0.44501953125000004 -3.1342773437500004 9.0630859375 0.6905401026217324 -0.020046426733150755 0.0722806013730471 -0.7193942049471557
-0.36538570155887146 -0.009587379924285258 -0.21198762277030733 0.44501953125000004 -3.1342773437500004 9.0630859375 0.6903482139762304 -0.02179433097345863 0.07377523444406237 -0.7193758165103772
-0.3589941149426813 -1.1824435239951816 0.24394555585125818 -0.5790039062500001 -1.1101562500000002 9.173144531250001 0.6922741663915123 -0.02755253986722444 0.07119040257204508 -0.7175857179985062
-0.3589941149426813 -1.1824435239951816 0.24394555585125818 -0.5790039062500001 -1.1101562500000002 9.173144531250001 0.6942593740882509 -0.03323595545069828 0.06856506536261515 -0.7156801831598314
-0.37816887479125183 -0.0884169481906307 -0.14381069886427886 -0.2583984375 -0.37324218750000004 10.048828125 0.6945779212228907 -0.035152220547336854 0.06972382091519454 -0.7151674080502166
-0.37816887479125183 -0.0884169481906307 -0.14381069886427886 -0.2583984375 -0.37324218750000004 10.048828125 0.6950316215916065 -0.03701652585867833 0.07080459305565734 -0.7145260886792857
-0.4697816162899776 0.2034655072820538 -0.4889563761385481 -0.401953125 -0.7560546875 9.704296875 0.6942052342086907 -0.03829172117757274 0.07312583468758081 -0.7150282855857946
-0.4697816162899776 0.2034655072820538 -0.4889563761385481 -0.401953125 -0.7560546875 9.704296875 0.6934787291934874 -0.03957395348601106 0.07537599851256185 -0.7154296703449662
-0.471912145162041 0.3153182730653818 -0.29614351321681126 0.90439453125 -3.1007812500000003 9.340625000000001 0.693365709100425 -0.040365597341494336 0.07805661056948847 -0.7152075066310002
-0.471912145162041 0.3153182730653818 -0.29614351321681126 0.90439453125 -3.1007812500000003 9.340625000000001 0.6932476820564054 -0.041225541073091634 0.0806701177306688 -0.7149828237041583
0.23648870479903633 0.524110102527594 1.524393407961356 1.8470703125 -4.3162109375 10.1349609375 0.6996040869201243 -0.038251401463198206 0.08182709866371171 -0.708798474726801
-0.19600865622983193 0.45060685644140713 1.0918960469324877 -0.88046875 -1.4068359375000001 11.034570312500001 0.7104845226037335 -0.03446283910796655 0.08527581320449645 -0.6976762082395207
-0.19600865622983193 0.45060685644140713 1.0918960469324877 -0.88046875 -1.4068359375000001 11.034570312500001 0.7151534326987552 -0.03350103896993768 0.08762206837549166 -0.6926439353814645
-0.7893609470994862 -0.692421883420602 0.7414240474780598 -1.34462890625 -0.16748046875 12.092089843750001 0.7190931526902599 -0.03870969732650431 0.08780176326859562 -0.6882568179493745
-0.7893609470994862 -0.692421883420602 0.7414240474780598 -1.34462890625 -0.16748046875 12.092089843750001 0.723046521725091 -0.04382773629528106 0.08795364129705341 -0.6837740956888234
-1.5222628790892925 -0.9598032568645574 0.2737729600601457 -2.469140625 0.028710937500000002 12.10166015625 0.7253445977848847 -0.052570062713374596 0.08954559701973894 -0.6805095069321032
-1.5222628790892925 -0.9598032568645574 0.2737729600601457 -2.469140625 0.028710937500000002 12.10166015625 0.7276380492113879 -0.061199595942278626 0.09112845052817974 -0.6771211740159074
-0.842624168901071 -1.6138756205880183 -0.017044230976507122 4.34013671875 -5.06748046875 11.4748046875 0.7294083847462266 -0.06976907890355649 0.08787322567652461 -0.6748140337159955
-0.842624168901071 -1.6138756205880183 -0.017044230976507122 4.34013671875 -5.06748046875 11.4748046875 0.7311264573276834 -0.07841365588809143 0.08450980442016913 -0.6724310335808421
0.31425300862935013 -0.9012137128828143 0.422909981104583 3.57451171875 -5.09140625 11.28818359375 0.7344430371703178 -0.08031285673254898 0.07995988496750127 -0.6691410068075937
0.31425300862935013 -0.9012137128828143 0.422909981104583 3.57451171875 -5.09140625 11.28818359375 0.7377286372159917 -0.0822690966069195 0.07541836595984427 -0.665808023119926
0.737162989733933 -0.9960222476896351 1.1483550620421674 -1.7800781250000002 -0.2201171875 11.852832031250001 0.7435397590742125 -0.08264530611346133 0.06948230095925212 -0.6599171083603472
0.737162989733933 -0.9960222476896351 1.1483550620421674 -1.7800781250000002 -0.2201171875 11.852832031250001 0.7492388830362404 -0.08291784809835119 0.06354966680654048 -0.6540085369948341
-0.48043426065029454 -1.5009575903686587 1.188835110611372 -1.7130859375 1.1580078125000002 11.991601562500001 0.7546812938497245 -0.0892562364503966 0.059781450486058096 -0.6472369327733082
-0.48043426065029454 -1.5009575903686587 1.188835110611372 -1.7130859375 1.1580078125000002 11.991601562500001 0.759988366043123 -0.09546660186524494 0.05604462522120903 -0.6404395454617251
-1.24422886128502 -1.6415724959248426 0.14700649217237394 -3.4166015625000004 -3.62236328125 13.565917968750002 0.7614808433034956 -0.10522022248781338 0.053771341653922194 -0.6373258765169898
-1.24422886128502 -1.6415724959248426 0.14700649217237394 -3.4166015625000004 -3.62236328125 13.565917968750002 0.762812456642234 -0.11485051223631773 0.051598928886358454 -0.6342429080157506
-0.7297061386817112 -1.7534252617081705 -0.021305288720633905 5.97666015625 -2.7849609375 8.407519531250001 0.7638930833200247 -0.12298529459810605 0.04717935111004049 -0.6317563481258249
-0.7297061386817112 -1.7534252617081705 -0.021305288720633905 5.97666015625 -2.7849609375 8.407519531250001 0.7649755290085973 -0.13113901296803426 0.04260022744675868 -0.6291265531808928
0.4303668321568048 -0.44847632756934375 1.5339807878856413 4.9095703125000005 -1.41162109375 8.378808593750001 0.771423469847755 -0.1304716152396192 0.04028601524078007 -0.6214982097808766
0.4303668321568048 -0.44847632756934375 1.5339807878856413 4.9095703125000005 -1.41162109375 8.378808593750001 0.7778483004211106 -0.1297867555672119 0.03780518250817051 -0.6137411406992774
-0.0021305288720633903 0.09906959255094766 2.135855194243549 0.3541015625 0.47373046875 12.14951171875 0.7856426721628362 -0.12896705757017823 0.03916913835379548 -0.6038202284944999
-0.0021305288720633903 0.09906959255094766 2.135855194243549 0.3541015625 0.47373046875 12.14951171875 0.7933002873605405 -0.12805625675259225 0.0405170341501681 -0.5938304632838167
-0.422909981104583 -0.1587244009687226 0.8000135914598031 -1.1580078125000002 -3.3926757812500004 13.211816406250001 0.7966366034045008 -0.12979498008442988 0.04132142603799873 -0.5889107954615953
-0.422909981104583 -0.1587244009687226 0.8000135914598031 -1.1580078125000002 -3.3926757812500004 13.211816406250001 0.7998835587357015 -0.13154355894216185 0.04211852029784111 -0.5840450451917729
-1.24422886128502 -0.05113269292952137 1.7108146842669025 2.87109375 1.58388671875 6.8619140625 0.8051936840907691 -0.13603717664660606 0.04629864256763079 -0.5753376863779651
-1.24422886128502 -0.05113269292952137 1.7108146842669025 2.87109375 1.58388671875 6.8619140625 0.8104447143964785 -0.14045905463384847 0.05037581711199403 -0.5664917439190754
-1.3113405207550168 0.594417555305686 1.8695390852356253 -0.19140625 -2.84716796875 8.173046875 0.8158267005302899 -0.14325377233756603 0.05729186280078227 -0.5573354410673469
-1.3113405207550168 0.594417555305686 1.8695390852356253 -0.19140625 -2.84716796875 8.173046875 0.8209970389455031 -0.14609637741323314 0.064224305123876 -0.5481741960187487
-0.9374327037078918 -1.1824435239951816 0.2545982002115752 -0.9905273437500001 -4.632031250000001 10.80966796875 0.8224592267250795 -0.15279237376010746 0.06165391566113358 -0.5444392579335049
-0.9374327037078918 -1.1824435239951816 0.2545982002115752 -0.9905273437500001 -4.632031250000001 10.80966796875 0.8238372801798216 -0.15949642151086726 0.059218787999006886 -0.5406904497575953
0.017044230976507122 -1.5467639611180215 -0.1384843766841204 2.39736328125 -0.8469726562500001 5.7948242187500005 0.8249341656302095 -0.1633614254725665 0.05233488394207358 -0.538570076189098
0.017044230976507122 -1.5467639611180215 -0.1384843766841204 2.39736328125 -0.8469726562500001 5.7948242187500005 0.8260350607198428 -0.16717430284832294 0.04540434351920134 -0.5363369057955397
0.26312031569982874 -0.47297740959807266 0.3312972396058572 -0.08134765625000001 -0.33974609375000003 7.2830078125 0.8283087939218609 -0.16694115112375563 0.042695509373538394 -0.5331156417256219
0.26312031569982874 -0.47297740959807266 0.3312972396058572 -0.08134765625000001 -0.33974609375000003 7.2830078125 0.8305512611024891 -0.1666464379079065 0.039971378617196594 -0.5299206132102352
0.01384843766841204 0.3440804128382376 0.19813918510189532 -1.6078125 -0.033496093750000004 6.593945312500001 0.8320530634678143 -0.16524197176275934 0.04123884673053567 -0.5279035403007982
0.01384843766841204 0.3440804128382376 0.19813918510189532 -1.6078125 -0.033496093750000004 6.593945312500001 0.8335083995893607 -0.1637740994355791 0.04254342147689639 -0.5259580301289131
-0.36218990825077635 0.7488808985302817 0.2780340178042725 -0.7751953125000001 -0.976171875 6.68486328125 0.8347626551928057 -0.16278143100082318 0.046658512275018396 -0.5239241342494759
-0.36218990825077635 0.7488808985302817 0.2780340178042725 -0.7751953125000001 -0.976171875 6.68486328125 0.8360087347327421 -0.16176189750284636 0.05074986158789312 -0.5218686956655363
-0.1778991608172931 0.7584682784545671 0.46339002967378745 0.7512695312500001 -2.928515625 8.15390625 0.8378265620253174 -0.15997111907909434 0.05453127543191298 -0.5191167816832626
-0.1778991608172931 0.7584682784545671 0.46339002967378745 0.7512695312500001 -2.928515625 8.15390625 0.8396068193143246 -0.15826263852917402 0.05830472332799854 -0.516346671766472
0.07989483270237714 0.7563377495825037 0.5858954398174324 0.11484375000000001 -1.6365234375000002 8.474511718750001 0.8418684085306991 -0.15548587601232555 0.06147760779168761 -0.5131298362197227
0.07989483270237714 0.7563377495825037 0.5858954398174324 0.11484375000000001 -1.6365234375000002 8.474511718750001 0.8441222353779552 -0.15271329849535942 0.064595603474051 -0.5098663630943056
0.7105313788331407 0.8554073421334513 -0.19920444953792701 -3.14384765625 -0.593359375 7.168164062500001 0.8447631236444432 -0.14726031801544937 0.0660236830251631 -0.5102259665562552
0.7105313788331407 0.8554073421334513 -0.19920444953792701 -3.14384765625 -0.593359375 7.168164062500001 0.8453428411609459 -0.1417619253775189 0.0675991191292914 -0.5106166825556545
1.2048140771518472 1.2048140771518472 -1.3965616756375525 -5.062695312500001 -1.05751953125 7.335644531250001 0.8429969130240342 -0.13365933240191824 0.06864506889685577 -0.5165067686003431
1.2048140771518472 1.2048140771518472 -1.3965616756375525 -5.062695312500001 -1.05751953125 7.335644531250001 0.8405044695717795 -0.125554424087769 0.06982504441209683 -0.5224105534871009
1.303883669702795 0.5081311359871187 -2.1646173340164045 -3.9477539062500004 -0.7273437500000001 7.3500000000000005 0.8362052339904243 -0.11904552196294232 0.06746538180887948 -0.531071927901459
1.303883669702795 0.5081311359871187 -2.1646173340164045 -3.9477539062500004 -0.7273437500000001 7.3500000000000005 0.8317581545313688 -0.11253720099985723 0.06523903673517467 -0.5396828873028643
1.1185276578332801 -0.49641322719077 -2.6514431812828896 -3.1007812500000003 -0.13398437500000002 8.134765625 0.8266049847002721 -0.1077872127967356 0.06108892670110833 -0.5489756452345412
1.1185276578332801 -0.49641322719077 -2.6514431812828896 -3.1007812500000003 -0.13398437500000002 8.134765625 0.8207763227426763 -0.10480298131064918 0.05506502952157764 -0.5588473903108053
1.024784387462491 -0.25992452239173364 -2.9092371748025596 -1.5216796875 -0.6220703125 11.1685546875 0.8143904559429238 -0.10164875436484058 0.04962192065827242 -0.5691865959378675
1.024784387462491 -0.25992452239173364 -2.9092371748025596 -1.5216796875 -0.6220703125 11.1685546875 0.807415933671817 -0.0984132939134797 0.04469718743790668 -0.5799969784999811
1.6969662465984905 0.7307714031177429 -2.6727484700035236 0.6794921875000001 -1.0240234375000001 10.7857421875 0.8007165502869811 -0.09232661265578004 0.040794209409576516 -0.5904783104997791
1.6969662465984905 0.7307714031177429 -2.6727484700035236 0.6794921875000001 -1.0240234375000001 10.7857421875 0.7942268307473999 -0.08349315555538378 0.03792226934639294 -0.6006617482277068
1.3550163626323164 1.8152105989980087 -1.915345455984988 1.0144531250000002 -0.80390625 10.5177734375 0.7885791498492059 -0.07365444995599908 0.037767360508181 -0.6093369945317846
1.3550163626323164 1.8152105989980087 -1.915345455984988 1.0144531250000002 -0.80390625 10.5177734375 0.783751440357712 -0.06288063604005135 0.040354102209003546 -0.6165640694877668
0.8575378710055146 1.660747255773413 -0.9864348677653498 0.9331054687500001 -0.59814453125 10.771386718750001 0.7802046516829848 -0.05330545357385613 0.04340011678445627 -0.6217360050492599
0.8575378710055146 1.660747255773413 -0.9864348677653498 0.9331054687500001 -0.59814453125 10.771386718750001 0.7779622469701565 -0.04490778606421596 0.04704193470661364 -0.6249360682653982
0.15446334322459582 1.5318502590135779 -0.3611246438147447 0.41630859375 -0.85654296875 12.278710937500001 0.7765850524473291 -0.038056191241086376 0.05151218303884431 -0.6267486558598858
0.15446334322459582 1.5318502590135779 -0.3611246438147447 0.41630859375 -0.85654296875 12.278710937500001 0.7760943982261702 -0.03272832051898647 0.056827285668038 -0.6271977373058422
-0.4026699568199808 1.2740562654939076 -0.006391586616190171 0.028710937500000002 -1.5743164062500001 13.063476562500002 0.7761384485173283 -0.02885329713554136 0.062496846170697395 -0.6267940173583653
-0.4026699568199808 1.2740562654939076 -0.006391586616190171 0.028710937500000002 -1.5743164062500001 13.063476562500002 0.7767083120127468 -0.026513178581574325 0.06852565631237739 -0.6255601360690827
-0.46339002967378745 1.2495551834651786 0.3536677927625228 -0.1244140625 -2.1533203125 12.015527343750001 0.7777964291895747 -0.024254138153412222 0.07459995958474269 -0.623601874237351
-0.46339002967378745 1.2495551834651786 0.3536677927625228 -0.1244140625 -2.1533203125 12.015527343750001 0.7793960159204597 -0.02215961371443683 0.08071753307115387 -0.620915035848101
-0.2258360604387194 1.7630126416324556 0.6977482056007603 -1.41640625 -2.9189453125 10.2115234375 0.7813675783851538 -0.0187510815401824 0.08742621130246764 -0.6176323841630149
-0.2258360604387194 1.7630126416324556 0.6977482056007603 -1.41640625 -2.9189453125 10.2115234375 0.7836741669868014 -0.014121572906499257 0.09480256596552909 -0.613732722496154
0.6103965218461614 1.4413027819508837 0.9022789773188459 -2.0576171875 -2.8854492187500003 10.06796875 0.7862891283644413 -0.00838408064947059 0.10028824789960834 -0.6096075632247167
0.6103965218461614 1.4413027819508837 0.9022789773188459 -2.0576171875 -2.8854492187500003 10.06796875 0.7891554935457897 -0.0014520949060856173 0.10392301017907307 -0.6053358624616627
0.44847632756934375 0.8202536157444054 0.7329019319898062 -1.1484375 -2.1963867187500004 12.843359375 0.791823601694501 0.0041032858641889755 0.10656759423717369 -0.6013666890534977
0.44847632756934375 0.8202536157444054 0.7329019319898062 -1.1484375 -2.1963867187500004 12.843359375 0.7943651896977039 0.008360559885494737 0.10820909145611887 -0.5976661601271843
0.2684466378799872 0.47830373177823116 0.3344930329139523 -0.56943359375 -3.0098632812500004 18.944433593750002 0.7963908276008629 0.011583963166841404 0.10952161569420202 -0.5946700574320969
0.2684466378799872 0.47830373177823116 0.3344930329139523 -0.56943359375 -3.0098632812500004 18.944433593750002 0.7979574850759333 0.01383298296242206 0.1103243466503686 -0.5923690058821633
-0.30999195088522336 0.14274543442824716 -0.21198762277030733 -0.172265625 -3.03857421875 18.3080078125 0.7988442019984315 0.014233482936175594 0.11134273445562315 -0.5909722027142558
-0.30999195088522336 0.14274543442824716 -0.21198762277030733 -0.172265625 -3.03857421875 18.3080078125 0.7990889645490437 0.012821378703602455 0.11253790775347777 -0.5904469987243105
-1.1558119130943894 -0.4527373853134705 -0.4218447166685513 -0.15791015625000002 -2.8663085937500004 12.666308593750001 0.7992494334580252 0.008768660497801964 0.11374809735848632 -0.5900718804157883
-1.1558119130943894 -0.4527373853134705 -0.4218447166685513 -0.15791015625000002 -2.8663085937500004 12.666308593750001 0.7992796610329734 0.002132534227452784 0.11505123926474708 -0.5898395443681527
-0.8404936400290075 -0.3568635860706179 -0.30146983539696975 -0.14833984375 -2.6318359375 5.6273437500000005 0.7994191300418202 -0.0037330454040694766 0.11599742652418779 -0.5894571366392608
-0.8404936400290075 -0.3568635860706179 -0.30146983539696975 -0.14833984375 -2.6318359375 5.6273437500000005 0.7996539802983094 -0.00873625197241961 0.11669675353447617 -0.5889474148080279
0.4516721208774388 0.4175836589244245 0.2151834160784024 -0.92353515625 -2.0001953125000003 5.991015625 0.8004126983002868 -0.009903660583152521 0.11707746294973051 -0.5878216545653638
0.4516721208774388 0.4175836589244245 0.2151834160784024 -0.92353515625 -2.0001953125000003 5.991015625 0.8016805645638299 -0.007190985251323528 0.11712413909848426 -0.5861215728602498
0.41651839448839284 0.4197141877964879 -0.12783173232380343 -1.8901367187500002 -1.7944335937500002 10.546484375 0.8024310681861648 -0.004694135408563206 0.11724115730615145 -0.5850955964078784
0.41651839448839284 0.4197141877964879 -0.12783173232380343 -1.8901367187500002 -1.7944335937500002 10.546484375 0.8026407388984986 -0.002340374467872157 0.11743097666107322 -0.5847840051063715
0.09587379924285258 -0.05432848623761646 -0.46019423636569234 -1.9810546875000001 -1.9475585937500002 11.350390625000001 0.8024631760634406 -0.001414251847696002 0.11719343557243203 -0.5850782422997943
0.09587379924285258 -0.05432848623761646 -0.46019423636569234 -1.9810546875000001 -1.9475585937500002 11.350390625000001 0.8019313974575716 -0.0018836722118700452 0.11649962603771213 -0.585943958654595
0.22050973825856093 0.20879182946221225 -0.10226538585904274 -1.052734375 -1.4068359375000001 7.675390625 0.8018525010041933 -0.001606780072677734 0.11613284795390033 -0.5861255381889059
0.22050973825856093 0.20879182946221225 -0.10226538585904274 -1.052734375 -1.4068359375000001 7.675390625 0.8021684665392647 -0.0005813074848697308 0.1161596835276123 -0.5856896288089942
0.6530070992874292 0.45593317862156557 0.18322548299745156 -1.25849609375 -1.6508789062500002 6.79013671875 0.8028485558731069 0.0017562133194050575 0.1160590187755991 -0.5847746713120265
0.6530070992874292 0.45593317862156557 0.18322548299745156 -1.25849609375 -1.6508789062500002 6.79013671875 0.8037954283892275 0.005355753702771568 0.11582960507328893 -0.5834961249155126
0.7531419562744086 0.42823630328474144 0.5219795736555307 -2.2203125000000004 -0.76083984375 8.283105468750001 0.8052147149245114 0.009259825336233096 0.11544638373273286 -0.5815631100635725
0.7531419562744086 0.42823630328474144 0.5219795736555307 -2.2203125000000004 -0.76083984375 8.283105468750001 0.8070720471160293 0.01341948092136943 0.11484506306239911 -0.5790209320792611
1.156877177530421 -0.18322548299745156 0.05539375067364816 -3.45009765625 0.6412109375 10.75703125 0.8083563952501123 0.01740609050463178 0.11247684688121856 -0.5775862924163346
1.156877177530421 -0.18322548299745156 0.05539375067364816 -3.45009765625 0.6412109375 10.75703125 0.8091299343374444 0.021271406953675277 0.10840275346620185 -0.5771525964996086
1.1749866729429599 -0.751011427402345 -0.7499461629663133 -1.665234375 0.0765625 10.800097656250001 0.8088999908132269 0.02418567042366286 0.10318231058017499 -0.5783158903158857
1.1749866729429599 -0.751011427402345 -0.7499461629663133 -1.665234375 0.0765625 10.800097656250001 0.807638314230831 0.026113216588611002 0.09686320370446266 -0.5810817266735252
0.5049353426790236 0.223705531566656 -0.7307714031177429 -0.7991210937500001 -0.440234375 9.723437500000001 0.8062683373587257 0.028125909903727854 0.09350863272979797 -0.5834350323471216
0.5049353426790236 0.223705531566656 -0.7307714031177429 -0.7991210937500001 -0.440234375 9.723437500000001 0.8047460156888959 0.030195945302232775 0.09304387611700049 -0.5855039643224256
0.23222764705490956 0.5379585401960061 -0.32703618186173045 -1.282421875 -0.24404296875 7.823730468750001 0.8038245971792793 0.03232472869978313 0.09354884367622286 -0.5865745841160325
0.23222764705490956 0.5379585401960061 -0.32703618186173045 -1.282421875 -0.24404296875 7.823730468750001 0.8034850554883348 0.03437487464949502 0.09507413961627212 -0.5866779709312124
0.5550027711725133 0.19707392066586363 -0.07137271721412358 -2.03369140625 0.5837890625000001 6.507812500000001 0.8036031479783227 0.03667899595400515 0.09538343343143393 -0.5863263872980368
0.5550027711725133 0.19707392066586363 -0.07137271721412358 -2.03369140625 0.5837890625000001 6.507812500000001 0.8041494266744629 0.03919373918285651 0.09457510302142874 -0.5855451308622462
1.188835110611372 0.06391586616190172 0.1310275256318985 -1.8757812500000002 0.708203125 7.2542968750000005 0.8049972090686879 0.042871631363217165 0.09255927283754548 -0.584443579507607
1.188835110611372 0.06391586616190172 0.1310275256318985 -1.8757812500000002 0.708203125 7.2542968750000005 0.8061024178206662 0.04768786948638111 0.08937307388063223 -0.5830413473782566
0.4218447166685513 -0.4740426740341044 0.12144014570761325 -1.0048828125 -0.7273437500000001 11.7427734375 0.8074276593442063 0.05021757008991854 0.08621742905376117 -0.5814682497845948
0.4218447166685513 -0.4740426740341044 0.12144014570761325 -1.0048828125 -0.7273437500000001 11.7427734375 0.8090044133744925 0.05031903435455895 0.08312164155765593 -0.5797160051499167
-0.262055051263797 -0.7030745277809188 -0.03195793308095086 0.0 -0.5790039062500001 10.919726562500001 0.8105674561587635 0.048696728489286904 0.08050631019533389 -0.5780378548758587
-0.262055051263797 -0.7030745277809188 -0.03195793308095086 0.0 -0.5790039062500001 10.919726562500001 0.8121066758205149 0.045293892034620385 0.07845508163448146 -0.5764338735690647
-0.7190534943213943 -0.27590348893220906 0.1512675499165007 -0.09091796875000001 -0.74169921875 11.752343750000001 0.8139866249826352 0.04160739380531538 0.07781378769586936 -0.5741425028462275
-0.7190534943213943 -0.27590348893220906 0.1512675499165007 -0.09091796875000001 -0.74169921875 11.752343750000001 0.8161409721484476 0.0376895301657143 0.07864763812504572 -0.5712337191674056
-1.198422490535657 -0.40160469238394914 0.5379585401960061 -1.0383789062500002 0.36845703125 11.46044921875 0.818945603119609 0.03265021951756912 0.07985611785372655 -0.5673491541703803
-1.198422490535657 -0.40160469238394914 0.5379585401960061 -1.0383789062500002 0.36845703125 11.46044921875 0.8223093338197761 0.026593720044039235 0.08139094193899252 -0.5625616838510943
-0.888430539650434 -0.8021441203318666 0.485760582830453 -0.6507812500000001 -0.45937500000000003 11.852832031250001 0.8255820859039945 0.020661640707895775 0.08161504635858573 -0.5579662178354108
-0.888430539650434 -0.8021441203318666 0.485760582830453 -0.6507812500000001 -0.45937500000000003 11.852832031250001 0.8287940116169535 0.014791332699962922 0.08058663255369507 -0.5535228066109759
-0.9843043388932865 -0.3302319751698255 0.019174759848570515 0.12919921875 -1.2058593750000002 11.30732421875 0.8311860783575242 0.009352942161131746 0.08064997520376904 -0.5500343690327009
-0.9843043388932865 -0.3302319751698255 0.019174759848570515 0.12919921875 -1.2058593750000002 11.30732421875 0.8328372377872666 0.004193087810171518 0.08180307013549418 -0.5474237947750351
-1.0716560226478853 -0.2503371424674484 0.17470336750919802 0.057421875000000004 -1.9714843750000002 10.68525390625 0.8346245890880153 -0.0009499321954460072 0.08317782858124413 -0.5445019207964238
-1.0716560226478853 -0.2503371424674484 0.17470336750919802 0.057421875000000004 -1.9714843750000002 10.68525390625 0.8365730654719072 -0.006189934286702947 0.084780957856714 -0.5412202694147369
-1.360342684812475 -0.7669903939428206 0.03195793308095086 -1.8040039062500002 -0.6507812500000001 11.7236328125 0.8383454208409447 -0.012698067208003178 0.08569720353585215 -0.5382115789820348
-1.360342684812475 -0.7669903939428206 0.03195793308095086 -1.8040039062500002 -0.6507812500000001 11.7236328125 0.8398598605028265 -0.02052503669104102 0.08590758437090512 -0.5355688793540566
-1.5403723745018314 -0.9086705639350361 -0.5784385887652105 -1.6125976562500002 -0.033496093750000004 10.532128906250001 0.8404605245009442 -0.02898961954533661 0.08598290561920656 -0.5342215351850699
-1.5403723745018314 -0.9086705639350361 -0.5784385887652105 -1.6125976562500002 -0.033496093750000004 10.532128906250001 0.8401528601275283 -0.038067750942613915 0.08599749521262168 -0.5341333623495729
-1.1472897976061358 -0.6796387101882216 -0.8703210442378951 0.593359375 -1.7130859375 10.316796875000001 0.8393496553929852 -0.045968160012688664 0.08591492983908307 -0.5347875363987742
-1.1472897976061358 -0.6796387101882216 -0.8703210442378951 0.593359375 -1.7130859375 10.316796875000001 0.838128313018474 -0.052858250376358114 0.08567805664328512 -0.5361027950811178
-0.5028048138069602 -0.41651839448839284 -0.3536677927625228 1.5551757812500002 -3.3017578125000004 11.8671875 0.8375989628811352 -0.05793460248414621 0.08518663392683093 -0.5364837337847874
-0.5028048138069602 -0.41651839448839284 -0.3536677927625228 1.5551757812500002 -3.3017578125000004 11.8671875 0.837800998468302 -0.0612234331291362 0.08437951868148418 -0.5359302893366631
-0.4197141877964879 -0.831971524540754 0.03195793308095086 1.3254882812500002 -3.0720703125 12.063378906250001 0.8385973653727332 -0.06487156561831445 0.08264519120733432 -0.5345240042640207
-0.4197141877964879 -0.831971524540754 0.03195793308095086 1.3254882812500002 -3.0720703125 12.063378906250001 0.8399783072649697 -0.06885309708916951 0.0799037301795841 -0.5322697513938713
-0.8064051780759933 -1.3198626362432704 0.14594122773634224 0.33974609375000003 -2.4404296875 10.5177734375 0.8414963332785309 -0.07429347766299656 0.07670886510896067 -0.5296037672347325
-0.8064051780759933 -1.3198626362432704 0.14594122773634224 0.33974609375000003 -2.4404296875 10.5177734375 0.8430658884660288 -0.08113285403581509 0.073020014041913 -0.526616981543804
-1.115331864525185 -1.457281748491359 0.05113269292952137 0.16748046875 -1.4690429687500002 8.38837890625 0.8443692394975447 -0.08874846555789549 0.06941460048230237 -0.5237804029279245
-1.115331864525185 -1.457281748491359 0.05113269292952137 0.16748046875 -1.4690429687500002 8.38837890625 0.845403388972237 -0.09718379946957093 0.0659092405678111 -0.5210608323820638
-0.8905610685224973 -1.0652644360316952 0.18535601186951495 0.69384765625 -2.1150390625 8.168261718750001 0.8465088940954539 -0.10450596737270645 0.06301175645855862 -0.51819949203834
-0.8905610685224973 -1.0652644360316952 0.18535601186951495 0.69384765625 -2.1150390625 8.168261718750001 0.8476768534694389 -0.11087734016422378 0.06066442627713585 -0.5152378042367662
-0.23648870479903633 -0.34834147058236437 0.2428802914152265 -0.52158203125 -4.7564453125 6.3690429687500005 0.8489369786782185 -0.11485142728593455 0.058999531947532796 -0.5124784981958307
-0.23648870479903633 -0.34834147058236437 0.2428802914152265 -0.52158203125 -4.7564453125 6.3690429687500005 0.850204276644432 -0.11664274513894334 0.05808276402633511 -0.5100721032413268
0.07030745277809189 0.32490565298966706 -0.9086705639350361 -0.45937500000000003 -2.5361328125 6.25419921875 0.8498878274550219 -0.11711933575379509 0.05794269224762305 -0.5105060101031818
0.07030745277809189 0.32490565298966706 -0.9086705639350361 -0.45937500000000003 -2.5361328125 6.25419921875 0.8480597891050835 -0.11629086750186511 0.058565768983556594 -0.5136546300210576
-0.21411815164237072 0.4644552941098191 -0.7563377495825037 -1.6030273437500002 -3.09599609375 7.866796875 0.846239584779902 -0.11587899930302548 0.059863384670877984 -0.5165917129105102
-0.21411815164237072 0.4644552941098191 -0.7563377495825037 -1.6030273437500002 -3.09599609375 7.866796875 0.8444593326742872 -0.11584579972738035 0.061980729693527345 -0.5192557898487788
-0.33236250404188894 0.17470336750919802 -1.2559467700813687 0.34931640625000004 -3.6271484375000003 8.78076171875 0.8419787314351317 -0.11653601133834796 0.06355248087888485 -0.5229266258724773
-0.33236250404188894 0.17470336750919802 -1.2559467700813687 0.34931640625000004 -3.6271484375000003 8.78076171875 0.8388114614489884 -0.11792625641821455 0.06445537175169692 -0.5275739144815146
0.9235842660394797 0.0692421883420602 -0.7350324608618697 0.74169921875 -2.36865234375 10.06318359375 0.8356449498886063 -0.11309786344085176 0.061089418987952976 -0.5340172973776203
0.9235842660394797 0.0692421883420602 -0.7350324608618697 0.74169921875 -2.36865234375 10.06318359375 0.8346283963073933 -0.10936957187912302 0.05849400072909059 -0.536667670633355
0.7147924365772675 -0.021305288720633905 -0.5741775310210837 1.67958984375 -2.3734375 10.259375 0.8339666588884508 -0.10678199361891272 0.05612871030460333 -0.5384670700987636
0.7147924365772675 -0.021305288720633905 -0.5741775310210837 1.67958984375 -2.3734375 10.259375 0.8333193452764293 -0.10420502604950592 0.05374793035866632 -0.540214162454341
0.8628641931856731 0.16511598758491275 0.507065871551087 -0.92353515625 2.8328125 8.450585937500001 0.8356878811900292 -0.10007890930475957 0.05226333565276882 -0.537474204860973
0.8628641931856731 0.16511598758491275 0.507065871551087 -0.92353515625 2.8328125 8.450585937500001 0.8381103165526868 -0.09586806154577437 0.0507424264269165 -0.5346079107380658
0.7360977252979014 0.10972223691126462 0.9001484484467825 -2.87109375 -0.19619140625 7.46005859375 0.8414460053880557 -0.09215983289056835 0.04957251284539591 -0.5301110743874908
0.7360977252979014 0.10972223691126462 0.9001484484467825 -2.87109375 -0.19619140625 7.46005859375 0.8447177826175359 -0.08838698655007818 0.04852975852258196 -0.5256276922652094
0.7233145520655211 -0.10333065029507443 1.05567705610741 -0.095703125 -1.282421875 9.8095703125 0.8483630613751445 -0.08518567434458774 0.046663264579200725 -0.5204287239569528
0.7233145520655211 -0.10333065029507443 1.05567705610741 -0.095703125 -1.282421875 9.8095703125 0.8519551576380655 -0.08202855372832484 0.04482255631155393 -0.5152035172558859
0.15233281435253243 -0.1320927900679302 0.9065400350629726 0.248828125 -1.1771484375 10.316796875000001 0.8549190274914832 -0.0813699461481109 0.04420834645522871 -0.5104292413259304
0.15233281435253243 -0.1320927900679302 0.9065400350629726 0.248828125 -1.1771484375 10.316796875000001 0.857827003119414 -0.08074599015404892 0.04363105610720178 -0.5056770201780751
-0.2258360604387194 0.034088461953014244 0.46019423636569234 -0.12919921875 -1.6604492187500002 9.6373046875 0.8594244721796876 -0.08139175802672274 0.04449199328295078 -0.5027777052313425
-0.2258360604387194 0.034088461953014244 0.46019423636569234 -0.12919921875 -1.6604492187500002 9.6373046875 0.8610052881178872 -0.08210915819260851 0.045331669529595366 -0.499873003583505
-0.11504855909142309 0.13954964112015208 -0.36751623043093484 -2.5265625000000003 -2.1150390625 9.340625000000001 0.8604639843709382 -0.08220989047521784 0.04611209952245636 -0.5007164265192161
-0.11504855909142309 0.13954964112015208 -0.36751623043093484 -2.5265625000000003 -2.1150390625 9.340625000000001 0.859897631893794 -0.08230680274992674 0.046896672970649304 -0.5015997956028427
-0.111852765783328 0.02024002428460221 -1.6245282649483355 -2.4308593750000003 -2.8998046875 7.17294921875 0.8561192318724662 -0.08299840307169336 0.046777773041515085 -0.5079202357210466
-0.111852765783328 0.02024002428460221 -1.6245282649483355 -2.4308593750000003 -2.8998046875 7.17294921875 0.8522209412143541 -0.08366451384625728 0.04672440524854678 -0.5143311641663953
-0.8234494090525004 -0.030892668644919165 -1.996305553123397 -2.2155273437500003 -2.4117187500000004 7.77109375 0.8470044141972275 -0.08762356861638694 0.04818213882063155 -0.5220958858792227
-0.8234494090525004 -0.030892668644919165 -1.996305553123397 -2.2155273437500003 -2.4117187500000004 7.77109375 0.8416508147180553 -0.09147448990294899 0.04967481110655781 -0.5298950244368754
-0.1587244009687226 0.07030745277809189 -1.8365158877186427 -2.0049804687500004 -1.1580078125000002 8.708984375 0.8369384598160314 -0.09223754534701825 0.04992037593036419 -0.5371538008579082
-0.1587244009687226 0.07030745277809189 -1.8365158877186427 -2.0049804687500004 -1.1580078125000002 8.708984375 0.8321993290292458 -0.09289937503700521 0.050166073146004415 -0.5443320199897453
0.9001484484467825 0.5954828197417176 -1.6671388423896032 1.20107421875 -2.09111328125 10.8048828125 0.828254276269048 -0.08778103372574764 0.04973612545179572 -0.5511947584884292
0.9001484484467825 0.5954828197417176 -1.6671388423896032 1.20107421875 -2.09111328125 10.8048828125 0.8242741519789579 -0.08271739719720748 0.049244975319676365 -0.5579470288352235
0.751011427402345 1.3081447274469218 -1.083373931444234 2.85673828125 -2.75146484375 11.694921875 0.8216563527865958 -0.07623582093262216 0.0521854906787711 -0.5624460970571086
0.751011427402345 1.3081447274469218 -1.083373931444234 2.85673828125 -2.75146484375 11.694921875 0.8190806851658831 -0.06983668808140099 0.05505216609418204 -0.566744146149166
0.22264026713062432 1.4178669643581863 -0.5656554155328302 1.6748046875000002 -2.6940429687500003 10.39814453125 0.8177357926976773 -0.06522609913876272 0.05996003139359744 -0.568734141728383
0.22264026713062432 1.4178669643581863 -0.5656554155328302 1.6748046875000002 -2.6940429687500003 10.39814453125 0.8164206351273066 -0.060687163644554364 0.06477990803599445 -0.5705944078081668
0.2151834160784024 1.1760519373789915 -0.3515372638904594 -1.20107421875 -1.53603515625 11.02021484375 0.8157416251928523 -0.05682310422325069 0.0687114303870687 -0.5715028215926153
0.2151834160784024 1.1760519373789915 -0.3515372638904594 -1.20107421875 -1.53603515625 11.02021484375 0.8150353535520518 -0.05290576994276661 0.07260221123449066 -0.5724048138257637
0.030892668644919165 0.09054747706269409 -0.5603290933526718 -1.8757812500000002 -1.2728515625 11.1015625 0.8140650547227495 -0.05294502326198265 0.07262922019176445 -0.5737768796016194
0.030892668644919165 0.09054747706269409 -0.5603290933526718 -1.8757812500000002 -1.2728515625 11.1015625 0.8130711618017362 -0.05287513370159842 0.07264280028063484 -0.5751891251143407
0.5315669535798159 0.28336033998443094 -0.5731122665850521 0.6029296875000001 -1.9379882812500002 9.862207031250001 0.8121696901697197 -0.05025625639432783 0.07202731868233245 -0.5767727181709299
0.5315669535798159 0.28336033998443094 -0.5731122665850521 0.6029296875000001 -1.9379882812500002 9.862207031250001 0.8112816126578156 -0.04770959175833929 0.07138909552108592 -0.5783161219076188
1.5680692498386555 1.4498248974391372 0.025566346464760685 2.1963867187500004 -2.5361328125 10.21630859375 0.8120341263155652 -0.037435745766507336 0.0725258980517697 -0.5778746721821318
1.5680692498386555 1.4498248974391372 0.025566346464760685 2.1963867187500004 -2.5361328125 10.21630859375 0.812857552582235 -0.027241817737635825 0.07358636279824296 -0.5771529518130301
1.4956312681885 1.841842209898801 0.6380933971829854 1.34462890625 -2.01455078125 11.54658203125 0.815438954557264 -0.016138808685872495 0.07648132397274753 -0.5735411557404865
1.4956312681885 1.841842209898801 0.6380933971829854 1.34462890625 -2.01455078125 11.54658203125 0.8182513811754342 -0.005019479265925768 0.07928110195660715 -0.5693452282270743
1.2974920830866048 1.5904398029953208 0.7680556583788524 -1.0144531250000002 -0.7369140625 12.67109375 0.8216519531270539 0.004540109402498341 0.0816691071106526 -0.564090074609419
1.2974920830866048 1.5904398029953208 0.7680556583788524 -1.0144531250000002 -0.7369140625 12.67109375 0.8251642105958307 0.014151466428051322 0.08404224192877793 -0.5584269541500304
0.9875001322013816 0.8873652752144022 0.2737729600601457 -2.47392578125 0.21533203125000003 12.446191406250001 0.8274751808376082 0.020269472362677576 0.08451676487329356 -0.5547349727962522
0.9875001322013816 0.8873652752144022 0.2737729600601457 -2.47392578125 0.21533203125000003 12.446191406250001 0.8296294230698578 0.026419113616405962 0.08508514899198705 -0.5511602019680936
0.39734363463982236 0.008522115488253561 -0.23009711818284617 -2.1676757812500003 0.21054687500000002 10.795312500000001 0.8308740857907626 0.027471805200001538 0.0837478332627783 -0.5494359415839188
0.39734363463982236 0.008522115488253561 -0.23009711818284617 -2.1676757812500003 0.21054687500000002 10.795312500000001 0.8321849835561163 0.028611621179091343 0.08247285039587467 -0.5475835618650271
0.23222764705490956 -0.524110102527594 -0.5145227226033088 -0.26796875000000003 -0.19140625 9.034375 0.8334348169316181 0.02754659173713147 0.07952203541012094 -0.546171984904077
0.23222764705490956 -0.524110102527594 -0.5145227226033088 -0.26796875000000003 -0.19140625 9.034375 0.835016359889827 0.026445884935619474 0.07658264092032913 -0.5442273357669408
0.7637946006347256 0.09906959255094766 -0.19068233404967347 1.4307617187500001 -0.32060546875 8.72333984375 0.8373401255549218 0.029496321782597236 0.0747362900259905 -0.540745751800341
0.7637946006347256 0.09906959255094766 -0.19068233404967347 1.4307617187500001 -0.32060546875 8.72333984375 0.8397399700007281 0.03256377695672512 0.07285824006925776 -0.5370922267800003
0.877777895290117 0.6551376281594925 0.2663161090079238 0.976171875 -0.0861328125 11.12548828125 0.8431393355766874 0.03786221633016094 0.07298172226244037 -0.5313719804369423
0.877777895290117 0.6551376281594925 0.2663161090079238 0.976171875 -0.0861328125 11.12548828125 0.8464851211979498 0.04314364076719915 0.07307822475626881 -0.5256054974201804
0.36538570155887146 0.6157228440263199 0.32490565298966706 -0.47851562500000006 0.56943359375 11.28818359375 0.8500279393890311 0.046166561308398774 0.07446372597944324 -0.5193999464653937
0.36538570155887146 0.6157228440263199 0.32490565298966706 -0.47851562500000006 0.56943359375 11.28818359375 0.8535053404648005 0.049226753366586294 0.07580723003200607 -0.5131847858480652
-0.3515372638904594 0.5315669535798159 0.2535329357755435 -1.4211914062500002 0.9618164062500001 8.39794921875 0.8569379155256338 0.048964564080288805 0.07876370109700634 -0.5070070608862469
-0.3515372638904594 0.5315669535798159 0.2535329357755435 -1.4211914062500002 0.9618164062500001 8.39794921875 0.8602744715101982 0.04867131631425911 0.08171463374528869 -0.500880879319584
-0.695617676728697 0.373907817047125 0.20985709389824395 -2.2203125000000004 0.669921875 7.3787109375 0.8635636709104362 0.04651795460473423 0.08488368842136565 -0.4948622289315162
-0.695617676728697 0.373907817047125 0.20985709389824395 -2.2203125000000004 0.669921875 7.3787109375 0.8667614157343989 0.044292048810263614 0.08804550206283579 -0.48888736143695993
-0.9289105882196382 -0.06498113059793341 0.09267800593475747 -3.2491210937500004 0.9953125 6.92412109375 0.8697462993019174 0.03989287567268738 0.09002736747580055 -0.48357523347102893
-0.9289105882196382 -0.06498113059793341 0.09267800593475747 -3.2491210937500004 0.9953125 6.92412109375 0.8725436073169102 0.035498118374447205 0.09195016986764239 -0.478490024121276
-0.48789111170251637 0.06178533728983833 -0.33768882622204743 -2.545703125 0.8948242187500001 6.6609375 0.8739576076932858 0.03315516714496401 0.09351025114119796 -0.4757674513647697
-0.48789111170251637 0.06178533728983833 -0.33768882622204743 -2.545703125 0.8948242187500001 6.6609375 0.8751781659325446 0.030798090066099036 0.09506797464335595 -0.4733674426071549
-0.04048004856920442 0.444215269825217 -0.2737729600601457 -1.3589843750000001 -0.4498046875 8.134765625 0.8762345746169364 0.03138764162154778 0.09718878548444276 -0.47093749710059457
-0.04048004856920442 0.444215269825217 -0.2737729600601457 -1.3589843750000001 -0.4498046875 8.134765625 0.8772819818361183 0.03192429107932517 0.09933518428286643 -0.46849726269025754
-0.3589941149426813 0.6689860658279047 0.07243798165015528 -1.320703125 -1.0958007812500001 9.029589843750001 0.8790875469467958 0.03171276191932172 0.10312977149055443 -0.464288311038324
-0.3589941149426813 0.6689860658279047 0.07243798165015528 -1.320703125 -1.0958007812500001 9.029589843750001 0.8809141278544882 0.0314366678092058 0.10688313091396995 -0.4599761206730707
-0.6977482056007603 0.5528722423004498 0.18429074743348325 -2.95244140625 -0.6412109375 9.1396484375 0.8829424575094343 0.02943500891052874 0.1108566750403405 -0.4552548677132824
-0.6977482056007603 0.5528722423004498 0.18429074743348325 -2.95244140625 -0.6412109375 9.1396484375 0.884784203228045 0.02741537860365806 0.11486506848141093 -0.45078967021981825
-0.9257147949115432 -0.08522115488253562 -0.19281286292173686 -4.268359375 -0.1435546875 9.45068359375 0.8857636290479538 0.02282711258166384 0.11660074430948673 -0.44867135278893894
-0.9257147949115432 -0.08522115488253562 -0.19281286292173686 -4.268359375 -0.1435546875 9.45068359375 0.8863696604703688 0.01834428080705785 0.11834612831123416 -0.44722086967521507
-0.9704559012248744 -0.9853696033293182 -0.793622004843613 -4.6990234375 -0.46416015625 10.5943359375 0.8858953472200456 0.011394823443198615 0.11630221045542563 -0.4489247014987647
-0.9704559012248744 -0.9853696033293182 -0.793622004843613 -4.6990234375 -0.46416015625 10.5943359375 0.8852088994613935 0.004571486423483366 0.11428492868280513 -0.45091380651095
-0.8607336643136096 -1.4583470129273908 -1.401887997817711 -2.87587890625 -1.1005859375 9.23056640625 0.8833654474209752 -0.0031842548268160506 0.10999022582016503 -0.45558478579510053
-0.8607336643136096 -1.4583470129273908 -1.401887997817711 -2.87587890625 -1.1005859375 9.23056640625 0.8814503242542092 -0.010942059904723113 0.10568926800621088 -0.46016885577524935
-0.4175836589244245 -0.9097358283710678 -1.2974920830866048 -1.1771484375 -2.392578125 9.287988281250001 0.8795420792381131 -0.01543491111931452 0.10275795218293012 -0.4643364056709384
-0.4175836589244245 -0.9097358283710678 -1.2974920830866048 -1.1771484375 -2.392578125 9.287988281250001 0.8776827128389848 -0.01997931501793012 0.09986435322007367 -0.46829583973269584
-0.30146983539696975 -0.6636597436477462 -0.7169229654493309 0.12919921875 -3.0577148437500004 9.168359375000001 0.8772030757970151 -0.023299621401910393 0.0977807342585528 -0.4694793067459333
-0.30146983539696975 -0.6636597436477462 -0.7169229654493309 0.12919921875 -3.0577148437500004 9.168359375000001 0.8769530148103712 -0.026679382922302215 0.09558474266066341 -0.47021822307560635
0.1320927900679302 -0.21944447382252924 -0.04793689962142629 0.20576171875000002 -2.4834960937500004 9.61337890625 0.8783472312269053 -0.02692850423911678 0.09435901536008803 -0.467843321290096
0.1320927900679302 -0.21944447382252924 -0.04793689962142629 0.20576171875000002 -2.4834960937500004 9.61337890625 0.8799365339709008 -0.027233596740548184 0.09307872140373978 -0.4650874960840123
0.2908171910366528 -0.043675841877299504 0.16405072314888106 -1.8135742187500001 -1.1340820312500002 11.225976562500001 0.8820220896308659 -0.026378149723814942 0.09218809328079348 -0.46134865565816985
0.2908171910366528 -0.043675841877299504 0.16405072314888106 -1.8135742187500001 -1.1340820312500002 11.225976562500001 0.8840665258301402 -0.025488635607124867 0.09135000783531452 -0.4576372836974729
0.15978966540475428 -0.47297740959807266 -0.2684466378799872 -3.043359375 -0.31103515625 10.79052734375 0.8852064175121578 -0.026322883025790802 0.08887488541676603 -0.45587055066834375
0.15978966540475428 -0.47297740959807266 -0.2684466378799872 -3.043359375 -0.31103515625 10.79052734375 0.886250115165528 -0.0270423169776513 0.08646364563173181 -0.45426147145189266
0.03195793308095086 -1.0151970075382055 -0.8628641931856731 -1.7465820312500002 -0.7751953125000001 9.527246093750001 0.8861365179714171 -0.029838979597502632 0.08187234843951385 -0.45515780271799255
0.03195793308095086 -1.0151970075382055 -0.8628641931856731 -1.7465820312500002 -0.7751953125000001 9.527246093750001 0.8859964463129958 -0.03253260645629223 0.07728055634756772 -0.45604785083203
0.09693906367888427 -0.6593986859036194 -0.8958873907026558 0.46416015625 -1.4451171875000002 10.149316406250001 0.8857263324791524 -0.03422766741633782 0.07406800296285226 -0.45698059222833665
0.09693906367888427 -0.6593986859036194 -0.8958873907026558 0.46416015625 -1.4451171875000002 10.149316406250001 0.8855782158461342 -0.03586237861860972 0.07080273416697996 -0.45765935612972364
0.41651839448839284 -0.8447546977731343 -0.7254450809375844 1.00966796875 -1.15322265625 12.570605468750001 0.8859933864126734 -0.03644376863081982 0.06594476224594384 -0.4575356371839385
0.41651839448839284 -0.8447546977731343 -0.7254450809375844 1.00966796875 -1.15322265625 12.570605468750001 0.8864845380567282 -0.036986867980062996 0.06105424268924364 -0.45721932902384776
0.22157500269459263 -0.9321063815277333 -0.845819962209166 1.1675781250000001 -0.7225585937500001 14.27412109375 0.8867072134429691 -0.03858673591253341 0.05614995586966327 -0.4572838985746777
0.22157500269459263 -0.9321063815277333 -0.845819962209166 1.1675781250000001 -0.7225585937500001 14.27412109375 0.8869580836045601 -0.040123746379542476 0.05115222510446263 -0.45725145464159944
-0.4154531300523611 -0.4985437560628334 -0.821318880180437 1.3972656250000002 -1.01923828125 12.05859375 0.8870046878663332 -0.043441281731304175 0.04955671565711032 -0.4570335553085468
-0.4154531300523611 -0.4985437560628334 -0.821318880180437 1.3972656250000002 -1.01923828125 12.05859375 0.8870811977892119 -0.04669863942161706 0.047868429480935684 -0.45674369077640886
-0.4814995250863262 -0.18855180517761008 -0.5997438774858443 1.8518554687500002 -1.30634765625 8.91953125 0.8875845678025285 -0.04950724311950752 0.04770541288902562 -0.45548530323007397
-0.4814995250863262 -0.18855180517761008 -0.5997438774858443 1.8518554687500002 -1.30634765625 8.91953125 0.8881007933039641 -0.05227472995484197 0.0475104754428651 -0.45418838411413687
0.024501082028728992 0.4346278899009317 -0.29614351321681126 1.7130859375 -1.052734375 7.7328125000000005 0.8893139962302526 -0.0512926498024001 0.04890537151502644 -0.45177200535469636
0.024501082028728992 0.4346278899009317 -0.29614351321681126 1.7130859375 -1.052734375 7.7328125000000005 0.8905385072822215 -0.050320362881702246 0.050303148452836496 -0.4493090488547258
0.3174488019374452 0.6657902725198096 -0.06072007285380662 0.22490234375 -0.47373046875 9.30234375 0.8923073733056558 -0.04748199327350538 0.05208044687334577 -0.4458930801353711
0.3174488019374452 0.6657902725198096 -0.06072007285380662 0.22490234375 -0.47373046875 9.30234375 0.8940252377960408 -0.04465419119639152 0.053881618411306356 -0.44251739919432226
0.19600865622983193 0.36751623043093484 -0.09374327037078917 -1.1340820312500002 0.14833984375 10.240234375 0.8956871882345614 -0.04303429517979762 0.05469217152497613 -0.439205278480036
0.19600865622983193 0.36751623043093484 -0.09374327037078917 -1.1340820312500002 0.14833984375 10.240234375 0.8972685948462972 -0.04141275186351002 0.0555212342657994 -0.4360177120613852
-0.1768338963812614 -0.03621899082507764 -0.32916671073379383 -1.64130859375 0.34931640625000004 9.015234375 0.8985482773583542 -0.04106632963750898 0.05589789832200112 -0.4333589445132299
-0.1768338963812614 -0.03621899082507764 -0.32916671073379383 -1.64130859375 0.34931640625000004 9.015234375 0.8994912914860822 -0.04204886572933488 0.055791761761765285 -0.43131727156594923
-0.2716424311880823 -0.07669903939428206 -0.44528053426124864 -1.16279296875 -0.21533203125000003 7.9720703125000005 0.9002353148984464 -0.04322122747905987 0.05569628380228215 -0.42965826801716994
-0.2716424311880823 -0.07669903939428206 -0.44528053426124864 -1.16279296875 -0.21533203125000003 7.9720703125000005 0.900775191935855 -0.04471301905741068 0.055673418600398386 -0.4283751509845548
-0.2034655072820538 -0.058589543981743236 -0.4676510874179142 -0.34931640625000004 -0.88046875 7.560546875000001 0.9012377223540918 -0.046021258143446916 0.05557343867122258 -0.42727532636364457
-0.2034655072820538 -0.058589543981743236 -0.4676510874179142 -0.34931640625000004 -0.88046875 7.560546875000001 0.9017061752991851 -0.04711514516799731 0.05547497624565534 -0.42617914488353115
-0.0031957933080950856 0.04048004856920442 -0.4154531300523611 0.00478515625 -1.3254882812500002 8.326171875 0.9022565503577707 -0.04768154860932182 0.055379178654062666 -0.4249620381049511
-0.0031957933080950856 0.04048004856920442 -0.4154531300523611 0.00478515625 -1.3254882812500002 8.326171875 0.9029095807772523 -0.04774363757205595 0.05524246427946064 -0.4235836448121754
0.2247707960026877 0.20879182946221225 -0.34301514840220587 -0.64599609375 -1.1197265625000001 9.144433593750001 0.9037277644097901 -0.04714340602725629 0.055299579966500055 -0.42189522817704506
0.2247707960026877 0.20879182946221225 -0.34301514840220587 -0.64599609375 -1.1197265625000001 9.144433593750001 0.9046513667800282 -0.045807609014291054 0.05547801452413971 -0.42003542403454514
0.03834951969714103 0.1587244009687226 -0.4175836589244245 -0.8134765625000001 -0.9474609375 9.29755859375 0.9055048628806907 -0.045005482583943344 0.05575705144305798 -0.4182422755427578
0.03834951969714103 0.1587244009687226 -0.4175836589244245 -0.8134765625000001 -0.9474609375 9.29755859375 0.9063104660594864 -0.04474024815730604 0.05613111225337185 -0.4164720249225132
-0.04048004856920442 0.262055051263797 -0.3174488019374452 -0.33017578125 -1.03359375 9.37412109375 0.9072241548798062 -0.04450301670388961 0.056813620104329304 -0.41441045700792306
-0.04048004856920442 0.262055051263797 -0.3174488019374452 -0.33017578125 -1.03359375 9.37412109375 0.9083007678037512 -0.044368256966418586 0.0577745559021661 -0.41192629640651157
-0.05645901510967985 0.223705531566656 -0.28549086885649433 -0.80390625 -0.8948242187500001 9.9435546875 0.909446255223084 -0.04431349380296554 0.058704115966677434 -0.40926476747486407
-0.05645901510967985 0.223705531566656 -0.28549086885649433 -0.80390625 -0.8948242187500001 9.9435546875 0.910659538482379 -0.044358756096861185 0.05955820455300766 -0.4064287465214805
0.010652644360316953 0.11611382352745478 -0.3131877441933184 -0.7512695312500001 -0.7895507812500001 9.5703125 0.9118735598498596 -0.04433247973262752 0.06011696598907745 -0.40361763153728625
0.010652644360316953 0.11611382352745478 -0.3131877441933184 -0.7512695312500001 -0.7895507812500001 9.5703125 0.9131063648970534 -0.0442981101828815 0.060354561113011976 -0.40078893544055094
0.16724651645697616 0.30146983539696975 -0.19174759848570516 -0.56943359375 -1.0479492187500001 9.101367187500001 0.9144758902808386 -0.043723185542606006 0.06090673358222042 -0.39763362401263164
0.16724651645697616 0.30146983539696975 -0.19174759848570516 -0.56943359375 -1.0479492187500001 9.101367187500001 0.9159604369226458 -0.04260293339562271 0.061675322636600624 -0.3942050515102957
0.2940129843447479 0.4154531300523611 -0.11398329465539139 -1.2728515625 -0.765625 9.27841796875 0.9191815083001023 -0.039151159954838755 0.06376322701098028 -0.38666108202725263
0.10226538585904274 0.34834147058236437 -0.15446334322459582 -1.512109375 -0.68427734375 10.345507812500001 0.9207535631298595 -0.03780281239872131 0.06495359044009681 -0.3828378957827384
0.10226538585904274 0.34834147058236437 -0.15446334322459582 -1.512109375 -0.68427734375 10.345507812500001 0.9222742644258982 -0.0369331435361894 0.06614479901682996 -0.3790395621161815
-0.22157500269459263 0.12676646788777174 -0.2269013248747511 -1.30634765625 -0.90439453125 10.73310546875 0.9237019995098938 -0.03706171284660336 0.06718711065841688 -0.3753490877885193
-0.22157500269459263 0.12676646788777174 -0.2269013248747511 -1.30634765625 -0.90439453125 10.73310546875 0.9250606393456389 -0.03816319423390081 0.06800489768856649 -0.3717280162022643
-0.3398193550941108 -0.21944447382252924 -0.20453077171808548 -1.31591796875 -1.1484375 10.268945312500001 0.9264471088366346 -0.03986680205822972 0.06811973132100105 -0.3680571896141219
-0.3398193550941108 -0.21944447382252924 -0.20453077171808548 -1.31591796875 -1.1484375 10.268945312500001 0.9278749979635267 -0.042167695992590265 0.0675223816521967 -0.36429466307493036
-0.4197141877964879 -0.43782368320902676 -0.09587379924285258 -1.2919921875 -1.3111328125000001 9.66123046875 0.9293853303148749 -0.044819611837755347 0.06656390529481601 -0.3602823291560755
-0.4197141877964879 -0.43782368320902676 -0.09587379924285258 -1.2919921875 -1.3111328125000001 9.66123046875 0.930991664598152 -0.04781037071026338 0.06512936027097274 -0.35598715613348086
-0.1342233189399936 -0.23222764705490956 0.08522115488253562 -0.34453125 -1.6508789062500002 9.048730468750001 0.9326936871476446 -0.04997550380825008 0.06395346026495369 -0.3514183972050727
-0.1342233189399936 -0.23222764705490956 0.08522115488253562 -0.34453125 -1.6508789062500002 9.048730468750001 0.9345357264512494 -0.05120694253025053 0.06294721019851957 -0.34649455082463043
0.16511598758491275 0.19707392066586363 0.22050973825856093 0.32539062500000004 -1.68916015625 10.4220703125 0.936437673377193 -0.051385261187514464 0.06270446513784805 -0.3413388182793993
0.16511598758491275 0.19707392066586363 0.22050973825856093 0.32539062500000004 -1.68916015625 10.4220703125 0.9384006005800933 -0.05044963879948278 0.06316553654640368 -0.3359602086091845
0.28549086885649433 0.4207794522325196 0.28549086885649433 -0.019140625 -1.63173828125 11.584863281250001 0.94036735448012 -0.04901814546634398 0.0640634865312304 -0.33045775787014553
0.28549086885649433 0.4207794522325196 0.28549086885649433 -0.019140625 -1.63173828125 11.584863281250001 0.942331601749623 -0.04711437385097485 0.06536245002285129 -0.32483709493780194
0.07030745277809189 0.2492718780314167 0.2503371424674484 -0.8182617187500001 -1.6125976562500002 11.484375 0.9442415958194891 -0.045896850466980395 0.06635758153108483 -0.31921459743379804
0.07030745277809189 0.2492718780314167 0.2503371424674484 -0.8182617187500001 -1.6125976562500002 11.484375 0.9460520507982967 -0.04534980296283772 0.06719416805845355 -0.3137098282338332
-0.2918824554726845 -0.2545982002115752 0.1310275256318985 -1.0862304687500002 -1.6939453125000001 10.795312500000001 0.9477799659558114 -0.046028918470854455 0.06708758265984228 -0.3083727145031854
-0.2918824554726845 -0.2545982002115752 0.1310275256318985 -1.0862304687500002 -1.6939453125000001 10.795312500000001 0.9494203768650465 -0.0480546796223847 0.06606110590317821 -0.30319568936030733
-0.12250541014364494 -0.5645901510967986 0.10652644360316951 -0.33974609375000003 -1.73701171875 10.20673828125 0.9526963508575318 -0.051478963755377964 0.06137182576597544 -0.293177554317458
0.13635384781205698 -0.3579288505066496 0.25992452239173364 0.35888671875 -2.0671875 10.929296875 0.9544100050010939 -0.05230598811554941 0.05887546231136689 -0.2879223956184907
0.13635384781205698 -0.3579288505066496 0.25992452239173364 0.35888671875 -2.0671875 10.929296875 0.956220657985963 -0.05236636151631659 0.056724275790658224 -0.28228031096493345
-0.0021305288720633903 -0.21198762277030733 0.29933930652490637 0.3828125 -2.09111328125 10.7091796875 0.9579742850672208 -0.05258336692202814 0.054974751150472706 -0.2765827821991715
-0.0021305288720633903 -0.21198762277030733 0.29933930652490637 0.3828125 -2.09111328125 10.7091796875 0.9596791779576741 -0.053059032728867306 0.053647430340815 -0.2707814019798765
-0.13528858337602528 -0.18642127630554664 0.19813918510189532 0.0478515625 -1.77529296875 9.77607421875 0.9612656635217904 -0.05381741482286792 0.052464135643494454 -0.26517828807611027
-0.13528858337602528 -0.18642127630554664 0.19813918510189532 0.0478515625 -1.77529296875 9.77607421875 0.962725365813251 -0.05487193082884298 0.051376651224742054 -0.25982567412745783
-0.053263221801584756 -0.12250541014364494 0.04154531300523612 -0.03828125 -1.5599609375 8.909960937500001 0.9640375010085953 -0.055715821252640296 0.05040763150180432 -0.254924527257824
-0.053263221801584756 -0.12250541014364494 0.04154531300523612 -0.03828125 -1.5599609375 8.909960937500001 0.965225869394025 -0.0563325393057581 0.04945391732696625 -0.25043956582163945
0.4793689962142628 -0.27909928224030417 -0.008522115488253561 0.37324218750000004 -1.53125 9.034375 0.9664478183289875 -0.05578200897009365 0.04781227923055498 -0.24613201310918523
0.4793689962142628 -0.27909928224030417 -0.008522115488253561 0.37324218750000004 -1.53125 9.034375 0.967693473444235 -0.05401801799577419 0.045442545667789706 -0.24204621506743446
0.6530070992874292 -0.5177185159114039 0.01810949541253882 0.56943359375 -1.44990234375 10.64697265625 0.96896862705427 -0.05195837886470309 0.042424083140036616 -0.23790822562501324
0.6530070992874292 -0.5177185159114039 0.01810949541253882 0.56943359375 -1.44990234375 10.64697265625 0.9702566648206886 -0.049602356998041816 0.03871659925983375 -0.23375764264089102
0.2769687533682408 -0.9864348677653498 0.06072007285380662 0.8661132812500001 -1.48818359375 11.900683593750001 0.9715106926423812 -0.048404328404542084 0.03417258457775216 -0.2294694522948587
0.2769687533682408 -0.9864348677653498 0.06072007285380662 0.8661132812500001 -1.48818359375 11.900683593750001 0.9727142080731846 -0.04832388527156439 0.028674385409160855 -0.22509920290002122
0.05752427954571154 -0.9864348677653498 0.09587379924285258 1.11494140625 -1.3111328125000001 9.72822265625 0.9738440463771193 -0.048796811387666894 0.023313810825822297 -0.22068781289190673
0.05752427954571154 -0.9864348677653498 0.09587379924285258 1.11494140625 -1.3111328125000001 9.72822265625 0.9748937169917601 -0.04972046926785783 0.018111530983227972 -0.2162916733284421
-0.2247707960026877 -0.30146983539696975 0.2024002428460221 0.69384765625 -1.1101562500000002 8.3931640625 0.9758800117356682 -0.05088298568282388 0.014726619204249926 -0.21178350065481194
-0.2247707960026877 -0.30146983539696975 0.2024002428460221 0.69384765625 -1.1101562500000002 8.3931640625 0.9768014217802725 -0.052404349890214454 0.013178158567838601 -0.20721752497649257
-0.16405072314888106 -0.034088461953014244 0.15446334322459582 -0.3828125 -0.708203125 6.689648437500001 0.9776534108924032 -0.05363172297900828 0.012258191011072315 -0.20289697684758418
-0.16405072314888106 -0.034088461953014244 0.15446334322459582 -0.3828125 -0.708203125 6.689648437500001 0.9784164727211991 -0.054516176041906624 0.012016661277151015 -0.1989592729915471
0.1778991608172931 0.3366235617860157 0.09374327037078917 -0.8421875000000001 -0.6125 6.909765625 0.9791413409338142 -0.054428382363320905 0.012475065960460236 -0.19535649054210213
0.1778991608172931 0.3366235617860157 0.09374327037078917 -0.8421875000000001 -0.6125 6.909765625 0.9798053625660149 -0.05330778686627263 0.013736321947825333 -0.19222654552804616
0.42717103884870977 0.46019423636569234 0.07030745277809189 -0.7273437500000001 -0.9857421875000001 8.46015625 0.9804351823378333 -0.05151637090884588 0.01523072669434223 -0.18936985432460982
0.42717103884870977 0.46019423636569234 0.07030745277809189 -0.7273437500000001 -0.9857421875000001 8.46015625 0.9810430080841834 -0.04911205577852086 0.016919843941462523 -0.18669853011564108
0.14381069886427886 0.3834951969714103 -0.0031957933080950856 -0.46894531250000004 -1.4690429687500002 9.32626953125 0.9815370699906603 -0.047451612371614854 0.01858212108575511 -0.18435842669495228
0.14381069886427886 0.3834951969714103 -0.0031957933080950856 -0.46894531250000004 -1.4690429687500002 9.32626953125 0.9819509214436637 -0.04653615395948114 0.020203837637344384 -0.18220477270182303
-0.0021305288720633903 0.25992452239173364 -0.019174759848570515 -0.48330078125000003 -1.50732421875 9.192285156250001 0.9823309326564623 -0.046064109856751086 0.021571232685079808 -0.18010751913742074
-0.0021305288720633903 0.25992452239173364 -0.019174759848570515 -0.48330078125000003 -1.50732421875 9.192285156250001 0.9826732833772251 -0.045985569927615357 0.022675114024291978 -0.17811340404091328
-0.005326322180158476 0.37816887479125183 0.07989483270237714 -0.36367187500000003 -1.45947265625 8.235253906250001 0.9830395959879835 -0.04590362633779123 0.02410874477460605 -0.17591127943999302
-0.005326322180158476 0.37816887479125183 0.07989483270237714 -0.36367187500000003 -1.45947265625 8.235253906250001 0.9834375164574398 -0.04577531641637207 0.02586166319535266 -0.17345444937439367
0.2524676713395118 0.42717103884870977 0.19707392066586363 -0.516796875 -1.2728515625 8.718554687500001 0.9839121515817101 -0.04497964583578971 0.02762679186726886 -0.17067650629614964
0.2524676713395118 0.42717103884870977 0.19707392066586363 -0.516796875 -1.2728515625 8.718554687500001 0.9844486685577074 -0.04357250326849652 0.02937361507286527 -0.16762889569350808
0.3824299325353786 0.26525084457189213 0.12357067457967666 -1.0048828125 -0.9091796875000001 10.37900390625 0.984965607954104 -0.041905167450430096 0.03070244932220329 -0.1647545680525158
0.3824299325353786 0.26525084457189213 0.12357067457967666 -1.0048828125 -0.9091796875000001 10.37900390625 0.9854502443199357 -0.03997825608053122 0.03157144782314263 -0.16215054330124504
0.22796658931078279 -0.12463593901570835 -0.14061490555618378 -0.73212890625 -0.95224609375 11.2833984375 0.9858244041860758 -0.03862462067852184 0.03155165054132511 -0.16019636742675328
0.22796658931078279 -0.12463593901570835 -0.14061490555618378 -0.73212890625 -0.95224609375 11.2833984375 0.9860971404126095 -0.03779150919721454 0.030629210117116154 -0.15889016014301394
0.07776430383031376 -0.33555829734998405 -0.28655613329252605 0.11005859375 -1.4211914062500002 10.98193359375 0.9863072614940893 -0.03746331504805554 0.029222374361265797 -0.15792573820099806
0.07776430383031376 -0.33555829734998405 -0.28655613329252605 0.11005859375 -1.4211914062500002 10.98193359375 0.9864872625936214 -0.03754288211809996 0.027354164932764276 -0.15711512468136565
-0.011717908796348646 -0.2737729600601457 -0.23222764705490956 0.29189453125000003 -1.4690429687500002 10.737890625 0.986689991309934 -0.037838870874212796 0.02565595461838164 -0.15605400633238103
-0.011717908796348646 -0.2737729600601457 -0.23222764705490956 0.29189453125000003 -1.4690429687500002 10.737890625 0.9869169996076536 -0.03830341098697392 0.024119459230681616 -0.15474474556058215
-0.035153726389045944 -0.07989483270237714 -0.18109495412538817 0.07177734375 -1.0862304687500002 10.28330078125 0.9871479137014 -0.038738993780051724 0.023058433814864457 -0.1533186076961574
-0.035153726389045944 -0.07989483270237714 -0.18109495412538817 0.07177734375 -1.0862304687500002 10.28330078125 0.9873741020554443 -0.039186418635841956 0.022529385309304942 -0.15181974174094223
-0.03195793308095086 0.11824435239951817 -0.15978966540475428 -0.17705078125 -0.6986328125000001 9.795214843750001 0.9875954306963939 -0.03951952777344073 0.022417813116205783 -0.15030274065117777
-0.03195793308095086 0.11824435239951817 -0.15978966540475428 -0.17705078125 -0.6986328125000001 9.795214843750001 0.9878034654320578 -0.039717556775959624 0.022868156182025322 -0.14880818793668793
-0.009587379924285258 0.2002697139739587 -0.24501082028728988 -0.40673828125000006 -0.593359375 9.933984375000001 0.9879598813631438 -0.03984036806125181 0.02346630549970629 -0.14763925763786873
-0.009587379924285258 0.2002697139739587 -0.24501082028728988 -0.40673828125000006 -0.593359375 9.933984375000001 0.9880720795087137 -0.03988186707875641 0.02425805639256874 -0.14674654705884524
0.05113269292952137 0.16618125202094447 -0.3728425526110933 -0.5790039062500001 -0.82783203125 10.07275390625 0.9881337358199229 -0.039787193592833135 0.02494929126225184 -0.1462403235297313
0.05113269292952137 0.16618125202094447 -0.3728425526110933 -0.5790039062500001 -0.82783203125 10.07275390625 0.9881385964543142 -0.03955417344750986 0.025541999326714127 -0.14616835440879933
-0.04154531300523612 0.0660463950339651 -0.3834951969714103 0.0 -1.1771484375 9.72822265625 0.9881456814657442 -0.0395473360790862 0.025924064195168246 -0.1460550009594078
-0.04154531300523612 0.0660463950339651 -0.3834951969714103 0.0 -1.1771484375 9.72822265625 0.9881520729127595 -0.039868497674703164 0.0260620511231245 -0.14589980528648522
-0.41651839448839284 0.8149272935642469 -0.1778991608172931 0.7177734375 -1.2154296875000001 10.441210937500001 0.9881587529700521 -0.040771623072705585 0.02820225206236484 -0.14520532586410026
-0.41651839448839284 0.8149272935642469 -0.1778991608172931 0.7177734375 -1.2154296875000001 10.441210937500001 0.9881772133912629 -0.042377124841002846 0.03225248216905406 -0.14376978687618425
-0.007456851052221866 0.6125270507182248 -0.058589543981743236 -0.18183593750000002 -0.64599609375 12.092089843750001 0.9883035896174595 -0.04298838747766893 0.03564638251515581 -0.14190612638253922
-0.007456851052221866 0.6125270507182248 -0.058589543981743236 -0.18183593750000002 -0.64599609375 12.092089843750001 0.9885331183159751 -0.04265323223300642 0.03839777703798235 -0.13967314162398137
-0.007456851052221866 0.6125270507182248 -0.058589543981743236 -0.18183593750000002 -0.64599609375 12.092089843750001 0.9887626164464431 -0.04233346819461996 0.04114635594881578 -0.13734388657939026
-0.15978966540475428 0.23329291149094125 -0.3398193550941108 -0.5837890625000001 -0.20576171875000002 12.096875 0.9888346123668333 -0.04305818967706704 0.042069721167542345 -0.1363166910101378
-0.15978966540475428 0.23329291149094125 -0.3398193550941108 -0.5837890625000001 -0.20576171875000002 12.096875 0.9889108338236615 -0.04378667970899837 0.04298950112816416 -0.13524049770317867
-0.30466562870506486 0.25885925795570197 -0.520914309219499 0.2009765625 -0.7991210937500001 10.469921875 0.9888391783136619 -0.04523295985545416 0.04409486692175733 -0.13493221070533717
-0.30466562870506486 0.25885925795570197 -0.520914309219499 0.2009765625 -0.7991210937500001 10.469921875 0.988781161987891 -0.04664300219210859 0.04514107577440231 -0.1345307671958817
-0.1331580545039619 0.43143209659283654 -0.4676510874179142 0.37324218750000004 -1.0814453125 9.742578125000001 0.9887771641213836 -0.04709005494198748 0.04695466475027004 -0.1337815603729631
-0.1331580545039619 0.43143209659283654 -0.4676510874179142 0.37324218750000004 -1.0814453125 9.742578125000001 0.988790147072332 -0.04755273617245548 0.0487131991506311 -0.1328902049200767
0.2396844981071314 0.16192019427681767 -0.4197141877964879 -0.13398437500000002 -0.92353515625 10.13974609375 0.9889901112182288 -0.04636713503516661 0.04892473160052752 -0.13173845049567903
0.2396844981071314 0.16192019427681767 -0.4197141877964879 -0.13398437500000002 -0.92353515625 10.13974609375 0.9892057601512754 -0.04518913802381506 0.049132657509046156 -0.13044496101536726
0.7201187587574259 -0.4335626254649 -0.4868258472664847 -0.9378906250000001 -0.1435546875 10.704394531250001 0.9896122387878826 -0.04203189511442058 0.04609860261394299 -0.12952164093836543
0.7201187587574259 -0.4335626254649 -0.4868258472664847 -0.9378906250000001 -0.1435546875 10.704394531250001 0.9899931538739432 -0.03891112748128435 0.043078674896843104 -0.12862234335445116
0.9853696033293182 -0.8394283755929758 -0.5539375067364816 -0.48330078125000003 0.401953125 9.512890625 0.9904284806789202 -0.03469360705558941 0.038003012715007514 -0.12807634174234162
0.9853696033293182 -0.8394283755929758 -0.5539375067364816 -0.48330078125000003 0.401953125 9.512890625 0.9908137301148316 -0.030460501415258624 0.03293485363872638 -0.127575881283494
1.006674892049952 -0.5443501268121962 -0.29827404208887465 0.49765625 -0.15791015625000002 9.029589843750001 0.9912828987999445 -0.02590576453268366 0.0293892649250567 -0.1257910053140566
1.006674892049952 -0.5443501268121962 -0.29827404208887465 0.49765625 -0.15791015625000002 9.029589843750001 0.9917192219499669 -0.021335049997576943 0.02586068377363846 -0.12397187379124722
0.6988134700367921 -0.3227751241176037 -0.18216021856141987 -0.028710937500000002 0.0478515625 8.6037109375 0.9921400219630494 -0.01809399561245214 0.023662605570259076 -0.121535448489577
0.6988134700367921 -0.3227751241176037 -0.18216021856141987 -0.028710937500000002 0.0478515625 8.6037109375 0.9925344537781727 -0.014887765127593452 0.021487264685042962 -0.11913022273598219
-0.049002164057457984 -0.20879182946221225 -0.2034655072820538 -0.9618164062500001 0.25361328125000004 8.1251953125 0.992827245856163 -0.015311301936490525 0.020338097204117833 -0.11681603366315582
-0.049002164057457984 -0.20879182946221225 -0.2034655072820538 -0.9618164062500001 0.25361328125000004 8.1251953125 0.9930960060892281 -0.015721223529351788 0.019236911927700433 -0.11464339073775642
-0.49215216944664325 -0.1587244009687226 -0.3387540906580791 -1.244140625 0.0 8.32138671875 0.9932293025903255 -0.018317524173534726 0.018687095299588143 -0.11318486318121986
-0.49215216944664325 -0.1587244009687226 -0.3387540906580791 -1.244140625 0.0 8.32138671875 0.993331726836197 -0.020908725028585748 0.01813382276970164 -0.11191992740372371
-0.4175836589244245 0.02769687533682408 -0.47297740959807266 -0.765625 -0.37802734375 8.03427734375 0.9933424247883875 -0.02299739267490193 0.018500554578012807 -0.11135383480594191
-0.4175836589244245 0.02769687533682408 -0.47297740959807266 -0.765625 -0.37802734375 8.03427734375 0.9933384182473791 -0.025089889279758686 0.018819781950722696 -0.11088327239512517
0.0671116594699968 0.2418150269791948 -0.46552055854585084 0.014355468750000001 -1.0479492187500001 8.75205078125 0.9933832004127282 -0.024685168627362683 0.019918765791841566 -0.11037980955289851
0.0671116594699968 0.2418150269791948 -0.46552055854585084 0.014355468750000001 -1.0479492187500001 8.75205078125 0.9934356222342661 -0.02433111923853975 0.02102106707389807 -0.10978058048530727
0.14487596330031055 0.3206445952455403 -0.262055051263797 0.057421875000000004 -1.41162109375 9.359765625000001 0.9936099110091803 -0.0235321858650031 0.022431687616428036 -0.10808515329786558
0.14487596330031055 0.3206445952455403 -0.262055051263797 0.057421875000000004 -1.41162109375 9.359765625000001 0.993799565995547 -0.0227477391971824 0.023793044011290718 -0.10620194934725097
-0.04261057744126781 0.384560461407442 -0.05645901510967985 -0.516796875 -1.07666015625 9.364550781250001 0.9940679447965015 -0.022909217017009417 0.025613290304496238 -0.1031893805752547
-0.04261057744126781 0.384560461407442 -0.05645901510967985 -0.516796875 -1.07666015625 9.364550781250001 0.9943344515959002 -0.023036575311205978 0.027425638537102233 -0.10008071201906933
-0.27057716675205057 0.5294364247077525 0.009587379924285258 -1.45947265625 -0.46894531250000004 9.22578125 0.9945753834515828 -0.024258748073701257 0.030055743615839174 -0.09658142704336345
-0.27057716675205057 0.5294364247077525 0.009587379924285258 -1.45947265625 -0.46894531250000004 9.22578125 0.9948005676094185 -0.02550025482391209 0.032676121908136964 -0.09302601112021851
-0.22796658931078279 0.6231796950785418 -0.2002697139739587 -1.9044921875 0.019140625 9.13486328125 0.9948909444677256 -0.026531644765904423 0.035782320982242745 -0.090596390365491
-0.22796658931078279 0.6231796950785418 -0.2002697139739587 -1.9044921875 0.019140625 9.13486328125 0.9949593592475305 -0.02757073517780324 0.038932296857748405 -0.08820433248360934
0.15233281435253243 0.7819040960472644 -0.22264026713062432 -1.6125976562500002 -0.15791015625000002 9.220996093750001 0.995026673648944 -0.026691516693305915 0.0426821580022436 -0.0859518182006656
0.15233281435253243 0.7819040960472644 -0.22264026713062432 -1.6125976562500002 -0.15791015625000002 9.220996093750001 0.9950783404335461 -0.025782901171051777 0.04643023093927206 -0.08365746865731327
0.3515372638904594 0.9342369103997967 -0.12783173232380343 -1.41640625 -0.5550781250000001 9.953125 0.9951426625805504 -0.023849744542283675 0.05089706952844779 -0.08081929912327339
0.3515372638904594 0.9342369103997967 -0.12783173232380343 -1.41640625 -0.5550781250000001 9.953125 0.9951817265797649 -0.021998659473593925 0.05532815236396628 -0.07789855980101643
0.14381069886427886 0.807470442512025 -0.0447411063133312 -1.7513671875 -0.669921875 10.95322265625 0.9952482453554715 -0.021213078922924393 0.059208009933312926 -0.07433267760010924
0.14381069886427886 0.807470442512025 -0.0447411063133312 -1.7513671875 -0.669921875 10.95322265625 0.9952946384953332 -0.02046446045475358 0.06304350801019548 -0.07067746839345826
-0.2162486805144341 0.346210941710301 -0.03195793308095086 -1.7657226562500001 -0.6220703125 11.230761718750001 0.9954308282255688 -0.021682897791678583 0.06475579118321712 -0.06673833733132259
-0.2162486805144341 0.346210941710301 -0.03195793308095086 -1.7657226562500001 -0.6220703125 11.230761718750001 0.9955505301808798 -0.022917615333667634 0.06645814562239381 -0.06274742739284189
-0.4303668321568048 -0.049002164057457984 -0.08522115488253562 -1.7130859375 -0.3541015625 11.0728515625 0.9957369129118941 -0.02537352478400707 0.06626459440953283 -0.05893375970075536
-0.4303668321568048 -0.049002164057457984 -0.08522115488253562 -1.7130859375 -0.3541015625 11.0728515625 0.995901100713154 -0.02782506142566167 0.06605486323363481 -0.05516809402337808
-0.32703618186173045 -0.27909928224030417 -0.19494339179380024 -1.1484375 -0.34453125 10.69482421875 0.9961085111631885 -0.029782744516902895 0.0646229872826439 -0.05200664988214436
-0.32703618186173045 -0.27909928224030417 -0.19494339179380024 -1.1484375 -0.34453125 10.69482421875 0.9962916994919743 -0.03177105561034271 0.06323256322916464 -0.04893968222483675
-0.1789644252533248 -0.23222764705490956 -0.19600865622983193 -0.36845703125 -0.6220703125 11.21162109375 0.9964718978020967 -0.0329750230001506 0.06203418800048732 -0.045914750004191575
-0.1789644252533248 -0.23222764705490956 -0.19600865622983193 -0.36845703125 -0.6220703125 11.21162109375 0.9966408472486202 -0.03412075021755277 0.060782522703582 -0.04299163795358903
-0.447411063133312 0.012783173232380343 -0.07776430383031376 -0.019140625 -1.1340820312500002 11.40302734375 0.9967024125960356 -0.036526142382215604 0.060799231609942064 -0.03941567053288255
-0.447411063133312 0.012783173232380343 -0.07776430383031376 -0.019140625 -1.1340820312500002 11.40302734375 0.9967492335737987 -0.03888309867616174 0.060752128741973506 -0.03589218383859447
-0.646615512671239 0.16831178089300786 0.1320927900679302 -0.2583984375 -1.4068359375000001 10.723535156250001 0.9967264178517042 -0.04213251069345233 0.0615327837888373 -0.03122524649017027
-0.646615512671239 0.16831178089300786 0.1320927900679302 -0.2583984375 -1.4068359375000001 10.723535156250001 0.9966715375433922 -0.04543521551743035 0.062240491888365924 -0.026600913729973655
-0.68496503236838 0.21198762277030733 0.19068233404967347 -0.97138671875 -1.25849609375 10.58955078125 0.9965685003002572 -0.0488467454898032 0.0631963698073355 -0.021712634743973284
-0.68496503236838 0.21198762277030733 0.19068233404967347 -0.97138671875 -1.25849609375 10.58955078125 0.9964305323604701 -0.05226710305676613 0.06412077470074291 -0.016818750538022707
-0.6359628683109221 0.2567287290836386 0.08309062601047223 -1.07666015625 -1.2728515625 9.97705078125 0.9962520826335185 -0.055464739184797114 0.06518650191220757 -0.012496820555211901
-0.6359628683109221 0.2567287290836386 0.08309062601047223 -1.07666015625 -1.2728515625 9.97705078125 0.9960443353188524 -0.058667654507237946 0.06622892739395744 -0.00821690757469612
-0.5688512088409253 0.42930156772077316 0.06072007285380662 -0.899609375 -1.6556640625 9.575097656250001 0.995767492455572 -0.06156862610035097 0.06811531708120733 -0.00408764330444645
-0.5688512088409253 0.42930156772077316 0.06072007285380662 -0.899609375 -1.6556640625 9.575097656250001 0.9954621243497264 -0.06448340699993454 0.069978901400724 5.06513431545964e-05
-0.5134574581672772 0.5571333000445766 0.12250541014364494 -0.5120117187500001 -1.9140625000000002 9.42197265625 0.9951043214935448 -0.06709873525469548 0.07241858627020885 0.004549443341364872
-0.5134574581672772 0.5571333000445766 0.12250541014364494 -0.5120117187500001 -1.9140625000000002 9.42197265625 0.9947138418170551 -0.06973009890373358 0.07483917482020241 0.009010222897427964
-0.3664509659949031 0.4037352212560125 0.16937704532903955 -0.3923828125 -1.8087890625 9.8478515625 0.9943953481096214 -0.07165300836593791 0.07649830700174483 0.013847276841408983
-0.3664509659949031 0.4037352212560125 0.16937704532903955 -0.3923828125 -1.8087890625 9.8478515625 0.9940524064645637 -0.07355115504090345 0.07808652423964037 0.018775929439872968
-0.13635384781205698 0.18642127630554664 0.10865697247523293 -0.46416015625 -1.3685546875 10.39814453125 0.9938635177460765 -0.07429294840792199 0.07855550255148745 0.02334307025940297
-0.13635384781205698 0.18642127630554664 0.10865697247523293 -0.46416015625 -1.3685546875 10.39814453125 0.9936515000249353 -0.07504413014960444 0.07901565979817021 0.027957119575259447
0.1374191122480887 -0.22903185374681448 -0.01384843766841204 -0.16269531250000002 -1.40205078125 10.83359375 0.9937010012904209 -0.0744015441702949 0.07743913297137066 0.032029844584899395
0.1374191122480887 -0.22903185374681448 -0.01384843766841204 -0.16269531250000002 -1.40205078125 10.83359375 0.993731504698631 -0.07379293643145982 0.07581979310161718 0.03610620550881858
0.23116238261887787 -0.6253102239506051 -0.15339807878856412 0.0478515625 -1.6843750000000002 11.3408203125 0.9939503561500502 -0.07265442534715852 0.07220252296755637 0.03963356738651952
0.23116238261887787 -0.6253102239506051 -0.15339807878856412 0.0478515625 -1.6843750000000002 11.3408203125 0.9941452564615264 -0.07148398671048879 0.06859713775142257 0.04312402336671435
0.053263221801584756 -0.8021441203318666 -0.17470336750919802 0.36845703125 -1.8375000000000001 10.63740234375 0.9943117003831171 -0.0711599525279014 0.06404847166617536 0.04667222851641354
0.053263221801584756 -0.8021441203318666 -0.17470336750919802 0.36845703125 -1.8375000000000001 10.63740234375 0.9944457418792577 -0.07084489612103431 0.05950296732957114 0.050180315172274344
-0.21092235833427564 -0.5816343820733056 0.02024002428460221 0.153125 -1.7226562500000002 9.23056640625 0.9943449688588389 -0.07174126724909691 0.056079227059497826 0.054647907288547536
-0.21092235833427564 -0.5816343820733056 0.02024002428460221 0.153125 -1.7226562500000002 9.23056640625 0.9942132045802088 -0.072697237567959 0.05259839173264664 0.05906458054941789
-0.3834951969714103 -0.3174488019374452 0.16618125202094447 -0.8852539062500001 -1.21064453125 7.775878906250001 0.9938746062291441 -0.07449423590512602 0.05049959493639572 0.06413787353065985
-0.3834951969714103 -0.3174488019374452 0.16618125202094447 -0.8852539062500001 -1.21064453125 7.775878906250001 0.9935081419971471 -0.0763144817257643 0.04838788486835946 0.06911066677634323
-0.049002164057457984 -0.07243798165015528 0.20879182946221225 -1.7465820312500002 -0.8661132812500001 6.8954101562500005 0.9931743021210223 -0.07653023892675463 0.047677045242566385 0.07399207723244523
-0.049002164057457984 -0.07243798165015528 0.20879182946221225 -1.7465820312500002 -0.8661132812500001 6.8954101562500005 0.992816466823287 -0.07678617014705671 0.04696515748585 0.07882652637914501
0.1789644252533248 0.039414784133172724 0.02024002428460221 -2.1006835937500004 -1.03359375 7.06767578125 0.9925797459118291 -0.07602041340949224 0.046899662229051106 0.08250312984038588
0.1789644252533248 0.039414784133172724 0.02024002428460221 -2.1006835937500004 -1.03359375 7.06767578125 0.9923262100138617 -0.07530428958125394 0.04688759932781645 0.08613657712877938
0.21411815164237072 0.10546117916713782 -0.07137271721412358 -1.6173828125 -1.4307617187500001 7.129882812500001 0.9920916011250981 -0.07449501343584922 0.047211286825381865 0.08930757160803024
0.21411815164237072 0.10546117916713782 -0.07137271721412358 -1.6173828125 -1.4307617187500001 7.129882812500001 0.9918317340109141 -0.07373886680003504 0.047478040080638266 0.09261871647810342
0.14381069886427886 0.16405072314888106 -0.011717908796348646 -1.2776367187500002 -1.7657226562500001 8.0294921875 0.9914647774523954 -0.07332980794001447 0.048064652982854096 0.09648898109313046
0.14381069886427886 0.16405072314888106 -0.011717908796348646 -1.2776367187500002 -1.7657226562500001 8.0294921875 0.991039122502594 -0.0730356104855582 0.04856998942130245 0.10073834125051485
0.15339807878856412 0.21305288720633903 0.06817692390602849 -0.9331054687500001 -1.9236328125000002 9.603808593750001 0.9905241908768347 -0.07265867544363148 0.04928615009961991 0.10560975134392896
0.15339807878856412 0.21305288720633903 0.06817692390602849 -0.9331054687500001 -1.9236328125000002 9.603808593750001 0.989959665262034 -0.07230501130459596 0.05004077823855721 0.11066963001566037
0.2950782487807796 0.08628641931856731 0.07350324608618697 -1.33984375 -1.44990234375 10.1349609375 0.9894519789759656 -0.07118172182351339 0.05021202453315092 0.11574409864467175
0.2950782487807796 0.08628641931856731 0.07350324608618697 -1.33984375 -1.44990234375 10.1349609375 0.9889104238691746 -0.07006450986796582 0.05039282309765659 0.12086232415479907
0.5592638289166401 0.03195793308095086 0.035153726389045944 -1.7800781250000002 -1.01923828125 9.795214843750001 0.9884657053418354 -0.06763039495062596 0.050474789933128275 0.12575362667969783
0.5592638289166401 0.03195793308095086 0.035153726389045944 -1.7800781250000002 -1.01923828125 9.795214843750001 0.9879832241781192 -0.06520094315147965 0.050579311000333485 0.13068939916266095
0.632767075002827 -0.2428802914152265 -0.17150757420110294 -1.9858398437500002 -0.8661132812500001 9.3501953125 0.9876969260380929 -0.06235384827014386 0.04937114093682533 0.13464497890156216
0.632767075002827 -0.2428802914152265 -0.17150757420110294 -1.9858398437500002 -0.8661132812500001 9.3501953125 0.98737313041084 -0.059453911710173966 0.04818797526220094 0.13869914478895368
0.5379585401960061 -0.32703618186173045 -0.3312972396058572 -1.5551757812500002 -0.9474609375 8.68505859375 0.9871104294098684 -0.05706187188105545 0.04650573542546834 0.1421061557436267
0.5379585401960061 -0.32703618186173045 -0.3312972396058572 -1.5551757812500002 -0.9474609375 8.68505859375 0.9868191106485743 -0.054659522674926374 0.04483819760284994 0.1455675632668001
0.5422195979401329 -0.2822950755483993 -0.3898867835876005 -0.899609375 -1.0814453125 9.034375 0.9865590893594379 -0.052253677789487606 0.04340015238161572 0.1486174388589761
0.5422195979401329 -0.2822950755483993 -0.3898867835876005 -0.899609375 -1.0814453125 9.034375 0.9863117849502882 -0.04988247966884839 0.04202963916355444 0.15144078222871532
0.485760582830453 -0.17257283863713463 -0.4048004856920442 -0.3923828125 -0.8900390625000001 10.297656250000001 0.9860844902501799 -0.04779144517362778 0.04113216613544195 0.1538229526607309
0.485760582830453 -0.17257283863713463 -0.4048004856920442 -0.3923828125 -0.8900390625000001 10.297656250000001 0.9858899475104833 -0.04564414457356674 0.04031312364243999 0.1559245828152613
0.4048004856920442 -0.17470336750919802 -0.44315000538918525 0.02392578125 -0.63642578125 11.2451171875 0.9857340100080595 -0.04390115407826612 0.03945436899583685 0.15762139115985285
0.4048004856920442 -0.17470336750919802 -0.44315000538918525 0.02392578125 -0.63642578125 11.2451171875 0.9856133039021999 -0.04209086292000693 0.03857229925901037 0.15908158963095656
0.16405072314888106 -0.13528858337602528 -0.46339002967378745 0.07177734375 -0.5120117187500001 11.632714843750001 0.9854884923340494 -0.04085229682623867 0.037705791292606886 0.16038015657861654
0.16405072314888106 -0.13528858337602528 -0.46339002967378745 0.07177734375 -0.5120117187500001 11.632714843750001 0.9853627768623101 -0.04018617520873529 0.036851859667452296 0.1615153544878643
-0.23648870479903633 -0.10865697247523293 -0.4836300539583896 -0.41152343750000003 -0.7273437500000001 10.565625 0.9852130513983968 -0.04051991862728424 0.0359360805013294 0.1625483856176378
-0.23648870479903633 -0.10865697247523293 -0.4836300539583896 -0.41152343750000003 -0.7273437500000001 10.565625 0.9850297416055942 -0.041794499116035326 0.0348647844389387 0.16356672889705476
-0.5454153912482279 -0.07030745277809189 -0.447411063133312 -0.6555664062500001 -0.8230468750000001 8.9865234375 0.9848032428232145 -0.04384555067925197 0.03380638815732935 0.16461248048149288
-0.5454153912482279 -0.07030745277809189 -0.447411063133312 -0.6555664062500001 -0.8230468750000001 8.9865234375 0.9845254718247931 -0.046619514557664776 0.03271689975260206 0.16572815289248294
-0.41225733674426607 -0.18216021856141987 -0.3824299325353786 -0.47851562500000006 -0.3923828125 4.632031250000001 0.9842442093789459 -0.04901819909359083 0.031387106136260876 0.1669592825512445
-0.41225733674426607 -0.18216021856141987 -0.3824299325353786 -0.47851562500000006 -0.3923828125 4.632031250000001 0.9839588641148793 -0.05104823544460328 0.02986465499753179 0.16830666585024753
-0.09054747706269409 -0.4836300539583896 -0.520914309219499 -0.9474609375 -0.6412109375 10.489062500000001 0.983799893804125 -0.05213573324189621 0.027737606619999074 0.16926387520471214
-0.09054747706269409 -0.4836300539583896 -0.520914309219499 -0.9474609375 -0.6412109375 10.489062500000001 0.9837653609454313 -0.052288835436343405 0.025056992068021894 0.16983444715698665
-0.11078750134729631 -0.8191883513083736 -0.7456851052221866 -0.09091796875000001 -0.4498046875 11.33603515625 0.9838516434770875 -0.052367519208503764 0.021493482476899937 0.16979875373628564
-0.11078750134729631 -0.8191883513083736 -0.7456851052221866 -0.09091796875000001 -0.4498046875 11.33603515625 0.9840601829685168 -0.05232926535138478 0.01705779600159231 0.16910421603059297
-0.7105313788331407 -0.09800432811491597 -0.8000135914598031 1.1388671875 -0.593359375 11.517871093750001 0.9841827409467353 -0.054007653758835754 0.0141939461045649 0.16812506550784698
-0.7105313788331407 -0.09800432811491597 -0.8000135914598031 1.1388671875 -0.593359375 11.517871093750001 0.9842195540087191 -0.05737889080936961 0.012764325512377517 0.16690297897454806
-0.4697816162899776 -0.17150757420110294 -0.7062703210890139 1.30634765625 -0.5837890625000001 12.10166015625 0.9842446709882118 -0.06011903994313373 0.01129050844901825 0.1658934992294308
-0.4697816162899776 -0.17150757420110294 -0.7062703210890139 1.30634765625 -0.5837890625000001 12.10166015625 0.9842615390854047 -0.06216506993983337 0.009679196462642602 0.16513945595297116
-0.2002697139739587 -0.5475459201202914 -0.6625944792117144 0.899609375 -0.7034179687500001 11.278613281250001 0.984312959808514 -0.0633513424805702 0.007233082563829261 0.1645061916024352
-0.2002697139739587 -0.5475459201202914 -0.6625944792117144 0.899609375 -0.7034179687500001 11.278613281250001 0.9843949558262026 -0.06368530870649639 0.003997312835863921 0.16399626181403973
0.16618125202094447 -0.8255799379245639 -0.524110102527594 0.59814453125 -0.50244140625 9.694726562500001 0.9844673214517038 -0.06302331209113661 0.000270075981999969 0.16386604952135378
0.16618125202094447 -0.8255799379245639 -0.524110102527594 0.59814453125 -0.50244140625 9.694726562500001 0.9845251490580902 -0.06130469524708029 -0.0039873908747066105 0.16412210675841413
0.17363810307316632 -0.793622004843613 -0.40160469238394914 0.43066406250000006 -0.35888671875 8.72333984375 0.9845227005985006 -0.05955465378793993 -0.008108291028008696 0.16462852375891374
0.17363810307316632 -0.793622004843613 -0.40160469238394914 0.43066406250000006 -0.35888671875 8.72333984375 0.984458099553154 -0.05782587948911145 -0.012051976248085853 0.16538793110145256
0.29614351321681126 -0.4527373853134705 -0.3579288505066496 0.13876953125000002 -0.43544921875000003 8.283105468750001 0.9843814830784118 -0.055893054338620796 -0.015137286842636296 0.16625259335147313
0.29614351321681126 -0.4527373853134705 -0.3579288505066496 0.13876953125000002 -0.43544921875000003 8.283105468750001 0.9843178711189536 -0.053871861914162114 -0.01727728505457864 0.16708574598359732
-0.0021305288720633903 -0.20985709389824395 -0.3589941149426813 -0.287109375 -0.5550781250000001 8.402734375000001 0.9842173943037491 -0.05260482509634167 -0.018957836116286937 0.16789715178141004
-0.0021305288720633903 -0.20985709389824395 -0.3589941149426813 -0.287109375 -0.5550781250000001 8.402734375000001 0.9840948093087655 -0.05225345308671567 -0.020105888719842212 0.16859043914423016
-0.11078750134729631 -0.005326322180158476 -0.3834951969714103 -0.15791015625000002 -0.87568359375 8.383593750000001 0.983975239718817 -0.052219889572540173 -0.020817399436163772 0.16921124854466274
-0.11078750134729631 -0.005326322180158476 -0.3834951969714103 -0.15791015625000002 -0.87568359375 8.383593750000001 0.9838548259899398 -0.05260777940654098 -0.021062137492829838 0.1697600933271751
0.026631610900792378 0.06178533728983833 -0.41119207230823435 -0.153125 -1.05751953125 8.790332031250001 0.9837708127253605 -0.05264483580989656 -0.02109551396612988 0.17023069224654397
0.026631610900792378 0.06178533728983833 -0.41119207230823435 -0.153125 -1.05751953125 8.790332031250001 0.9837208530467251 -0.052378525008827705 -0.020925192438950316 0.17062212552982758
0.12037488127158155 0.09161274149872578 -0.4346278899009317 0.033496093750000004 -1.25849609375 8.7951171875 0.9836808033685492 -0.05194024436114254 -0.020627582612252948 0.17102277899591356
0.12037488127158155 0.09161274149872578 -0.4346278899009317 0.033496093750000004 -1.25849609375 8.7951171875 0.9836503616209387 -0.05133012193776276 -0.020202464200999363 0.17143233389608326
0.0692421883420602 0.10333065029507443 -0.39627837020379064 0.23447265625000002 -1.3494140625000002 8.747265625 0.983589620306503 -0.05080346126455784 -0.019847767887154096 0.17197829298707326
0.0692421883420602 0.10333065029507443 -0.39627837020379064 0.23447265625000002 -1.3494140625000002 8.747265625 0.9835021267747125 -0.050480537861188744 -0.01943614090504562 0.17261957697081087
0.05539375067364816 0.1310275256318985 -0.3227751241176037 0.0478515625 -1.1388671875 8.72333984375 0.9833641345964 -0.05016102731684056 -0.01899139283178466 0.1735458934296661
0.05539375067364816 0.1310275256318985 -0.3227751241176037 0.0478515625 -1.1388671875 8.72333984375 0.9831951252927128 -0.049942364867895314 -0.018522840646143325 0.17461388881313614
0.18961706961364178 0.27590348893220906 -0.2663161090079238 -0.0861328125 -0.9474609375 8.881250000000001 0.9830242671058341 -0.04946937045325959 -0.01757557279670517 0.17580435406685296
0.18961706961364178 0.27590348893220906 -0.2663161090079238 -0.0861328125 -0.9474609375 8.881250000000001 0.9828413396139727 -0.04872606899991286 -0.0162450126224839 0.17715747489316608
0.23009711818284617 0.373907817047125 -0.22157500269459263 -0.03828125 -0.9905273437500001 9.455468750000001 0.9826390011631315 -0.0479805953946989 -0.014672938160240373 0.1786145591614507
0.23009711818284617 0.373907817047125 -0.22157500269459263 -0.03828125 -0.9905273437500001 9.455468750000001 0.9824200641905447 -0.04714884243228468 -0.012794704004700959 0.18017796669563607
0.2258360604387194 0.3707120237390299 -0.1757686319452297 -0.06699218750000001 -1.0144531250000002 9.75693359375 0.9821691635904732 -0.04631228967550069 -0.010967520402649908 0.1818752853282168
0.2258360604387194 0.3707120237390299 -0.1757686319452297 -0.06699218750000001 -1.0144531250000002 9.75693359375 0.9818828738259238 -0.045536209850928606 -0.009105693305106886 0.1837105386993095
0.021305288720633905 0.3589941149426813 -0.12144014570761325 -0.33017578125 -0.92353515625 9.699511718750001 0.9815489981669989 -0.045265816526502266 -0.007437218786517723 0.1856266624929494
0.021305288720633905 0.3589941149426813 -0.12144014570761325 -0.33017578125 -0.92353515625 9.699511718750001 0.9811488208950048 -0.0455179632356279 -0.005875279037321171 0.18772476494979465
-0.029827404208887465 0.46552055854585084 -0.08096009713840883 -0.36367187500000003 -0.85654296875 9.383691406250001 0.9807325952575751 -0.04593419985687772 -0.00400347158374345 0.18983571344225003
-0.029827404208887465 0.46552055854585084 -0.08096009713840883 -0.36367187500000003 -0.85654296875 9.383691406250001 0.9802697854471822 -0.04654471404408877 -0.0019327108152871215 0.19209633511026103
0.2013349784099904 0.6572681570315559 -0.017044230976507122 -0.3828125 -0.9378906250000001 10.02490234375 0.9797984323784019 -0.0466465639966261 0.0007217233352669813 0.19447007248304854
0.2013349784099904 0.6572681570315559 -0.017044230976507122 -0.3828125 -0.9378906250000001 10.02490234375 0.97929928805437 -0.046347940716037365 0.003989415104043622 0.19699963800655598
0.20985709389824395 0.4197141877964879 -0.039414784133172724 -0.66513671875 -0.71298828125 11.06806640625 0.978802096604256 -0.04588528078764867 0.006611256994697813 0.19949257623054922
0.20985709389824395 0.4197141877964879 -0.039414784133172724 -0.66513671875 -0.71298828125 11.06806640625 0.9783177122576365 -0.04528246850675486 0.008731351340626437 0.20191016673928405
-0.04048004856920442 -0.09693906367888427 -0.12357067457967666 -0.6794921875000001 -0.69384765625 11.618359375 0.9778489598669327 -0.045073171914031845 0.009408784349372402 0.20418446473185192
-0.04048004856920442 -0.09693906367888427 -0.12357067457967666 -0.6794921875000001 -0.69384765625 11.618359375 0.9774226584826351 -0.045162561826372204 0.008711713802489555 0.20622656409066376
-0.24501082028728988 -0.31425300862935013 -0.1310275256318985 -0.057421875000000004 -1.0144531250000002 10.938867187500001 0.9769678758422738 -0.04571241080175596 0.007423842559596711 0.20830033997230354
-0.24501082028728988 -0.31425300862935013 -0.1310275256318985 -0.057421875000000004 -1.0144531250000002 10.938867187500001 0.9765114374885303 -0.0465576651657823 0.005483278928500358 0.2103038989666798
-0.3579288505066496 -0.07243798165015528 -0.06072007285380662 0.21533203125000003 -1.34462890625 10.225878906250001 0.9759867432568448 -0.04785447868454308 0.0040696103210714225 0.21246944281134333
-0.3579288505066496 -0.07243798165015528 -0.06072007285380662 0.21533203125000003 -1.34462890625 10.225878906250001 0.9754088219660907 -0.04950191925559085 0.0031553293586497264 0.21474923496342085
-0.3302319751698255 0.24607608472332163 0.04154531300523612 0.3828125 -1.6748046875000002 10.297656250000001 0.9747651566420024 -0.051238463489300286 0.0030857625908418673 0.21725097773124358
-0.3302319751698255 0.24607608472332163 0.04154531300523612 0.3828125 -1.6748046875000002 10.297656250000001 0.974052460127049 -0.05309621799036558 0.003755056400455401 0.21997385323486177
-0.3877562547155371 0.3515372638904594 0.09161274149872578 0.16269531250000002 -2.0384765625 11.278613281250001 0.9733020274062513 -0.0551508422565697 0.004612731611946627 0.22275607904689865
-0.3877562547155371 0.3515372638904594 0.09161274149872578 0.16269531250000002 -2.0384765625 11.278613281250001 0.9724895345100868 -0.05740446476268664 0.005651253781414905 0.22569203801721083
-0.6434197193631439 0.5699164732769569 0.07669903939428206 0.11484375000000001 -2.5026367187500003 10.44599609375 0.9716341186784409 -0.06044532885767134 0.007090746862419284 0.22852400956615201
-0.6434197193631439 0.5699164732769569 0.07669903939428206 0.11484375000000001 -2.5026367187500003 10.44599609375 0.970724389024246 -0.06416068751838287 0.008851385716120387 0.23129898335612506
-0.3898867835876005 0.7701861872509157 0.15020228548046902 -0.28232421875 -2.469140625 9.40283203125 0.96977170630829 -0.06743854924726532 0.011181267158926991 0.23424316208600932
-0.3898867835876005 0.7701861872509157 0.15020228548046902 -0.28232421875 -2.469140625 9.40283203125 0.968779410450693 -0.07020317546070115 0.014151998674465033 0.2373556171139826
